time,.header.seq,.header.stamp.secs,.header.stamp.nsecs,.header.frame_id,.orientation.x,.orientation.y,.orientation.z,.orientation.w,.orientation_covariance,.angular_velocity.x,.angular_velocity.y,.angular_velocity.z,.angular_velocity_covariance,.linear_acceleration.x,.linear_acceleration.y,.linear_acceleration.z,.linear_acceleration_covariance
2022/11/28/22:58:31.422948,2402,1669697911,422651290,RU_myo,0.41227358778067474,-0.11522909455661198,-0.6083095261894871,-0.6683653678439925,"(0.0, 0.0, 0.0, 0.0, 0.0, 0.0, 0.0, 0.0, 0.0)",156.25,102.1875,-0.125,"(0.0, 0.0, 0.0, 0.0, 0.0, 0.0, 0.0, 0.0, 0.0)",0.53759765625,0.50732421875,-0.05712890625,"(0.0, 0.0, 0.0, 0.0, 0.0, 0.0, 0.0, 0.0, 0.0)"
2022/11/28/22:58:31.446222,2403,1669697911,445889711,RU_myo,0.42229032961981794,-0.0975314274797614,-0.616437683069831,-0.6573911172618961,"(0.0, 0.0, 0.0, 0.0, 0.0, 0.0, 0.0, 0.0, 0.0)",113.9375,79.625,-2.25,"(0.0, 0.0, 0.0, 0.0, 0.0, 0.0, 0.0, 0.0, 0.0)",0.537109375,0.64208984375,-0.12353515625,"(0.0, 0.0, 0.0, 0.0, 0.0, 0.0, 0.0, 0.0, 0.0)"
2022/11/28/22:58:31.468682,2404,1669697911,468317747,RU_myo,0.4276672451593398,-0.08715696105145386,-0.6216342074993401,-0.6504423907040223,"(0.0, 0.0, 0.0, 0.0, 0.0, 0.0, 0.0, 0.0, 0.0)",55.1875,55.1875,2.3125,"(0.0, 0.0, 0.0, 0.0, 0.0, 0.0, 0.0, 0.0, 0.0)",0.52587890625,0.69970703125,-0.12841796875,"(0.0, 0.0, 0.0, 0.0, 0.0, 0.0, 0.0, 0.0, 0.0)"
2022/11/28/22:58:31.483287,2405,1669697911,482752084,RU_myo,0.4301554481927973,-0.08391937305123386,-0.6219798769200904,-0.6488951085677952,"(0.0, 0.0, 0.0, 0.0, 0.0, 0.0, 0.0, 0.0, 0.0)",-2.9375,34.5,4.6875,"(0.0, 0.0, 0.0, 0.0, 0.0, 0.0, 0.0, 0.0, 0.0)",0.5986328125,0.7548828125,-0.146484375,"(0.0, 0.0, 0.0, 0.0, 0.0, 0.0, 0.0, 0.0, 0.0)"
2022/11/28/22:58:31.506136,2406,1669697911,505800485,RU_myo,0.43029220195520734,-0.08587533732637968,-0.6185221524275278,-0.6518469101959737,"(0.0, 0.0, 0.0, 0.0, 0.0, 0.0, 0.0, 0.0, 0.0)",-43.875,16.0,5.6875,"(0.0, 0.0, 0.0, 0.0, 0.0, 0.0, 0.0, 0.0, 0.0)",0.625,0.80029296875,-0.06591796875,"(0.0, 0.0, 0.0, 0.0, 0.0, 0.0, 0.0, 0.0, 0.0)"
2022/11/28/22:58:31.529255,2407,1669697911,528448581,RU_myo,0.42997530159402864,-0.09087767552498348,-0.6133785352760805,-0.6562234837102904,"(0.0, 0.0, 0.0, 0.0, 0.0, 0.0, 0.0, 0.0, 0.0)",-55.5625,2.25,8.1875,"(0.0, 0.0, 0.0, 0.0, 0.0, 0.0, 0.0, 0.0, 0.0)",0.6142578125,0.6865234375,0.0576171875,"(0.0, 0.0, 0.0, 0.0, 0.0, 0.0, 0.0, 0.0, 0.0)"
2022/11/28/22:58:31.542698,2408,1669697911,542438030,RU_myo,0.430341231633841,-0.09899496209191465,-0.609960327463992,-0.657993024853842,"(0.0, 0.0, 0.0, 0.0, 0.0, 0.0, 0.0, 0.0, 0.0)",-44.6875,-12.375,20.75,"(0.0, 0.0, 0.0, 0.0, 0.0, 0.0, 0.0, 0.0, 0.0)",0.6435546875,0.5654296875,0.06982421875,"(0.0, 0.0, 0.0, 0.0, 0.0, 0.0, 0.0, 0.0, 0.0)"
2022/11/28/22:58:31.566379,2409,1669697911,566094398,RU_myo,0.43121204319499956,-0.1045528987959001,-0.6101665669951041,-0.6563700371576823,"(0.0, 0.0, 0.0, 0.0, 0.0, 0.0, 0.0, 0.0, 0.0)",-12.375,-13.375,22.75,"(0.0, 0.0, 0.0, 0.0, 0.0, 0.0, 0.0, 0.0, 0.0)",0.66259765625,0.6318359375,0.099609375,"(0.0, 0.0, 0.0, 0.0, 0.0, 0.0, 0.0, 0.0, 0.0)"
2022/11/28/22:58:31.589027,2410,1669697911,588629961,RU_myo,0.43363566386630265,-0.10802746306028932,-0.6126438837283527,-0.6518877587270906,"(0.0, 0.0, 0.0, 0.0, 0.0, 0.0, 0.0, 0.0, 0.0)",14.875,-9.125,27.6875,"(0.0, 0.0, 0.0, 0.0, 0.0, 0.0, 0.0, 0.0, 0.0)",0.69677734375,0.66259765625,0.150390625,"(0.0, 0.0, 0.0, 0.0, 0.0, 0.0, 0.0, 0.0, 0.0)"
2022/11/28/22:58:31.603013,2411,1669697911,602630615,RU_myo,0.4357750044393872,-0.10760102700653217,-0.6153338368008265,-0.6479864456768871,"(0.0, 0.0, 0.0, 0.0, 0.0, 0.0, 0.0, 0.0, 0.0)",23.875,-0.5625,21.9375,"(0.0, 0.0, 0.0, 0.0, 0.0, 0.0, 0.0, 0.0, 0.0)",0.64892578125,0.83740234375,0.2197265625,"(0.0, 0.0, 0.0, 0.0, 0.0, 0.0, 0.0, 0.0, 0.0)"
2022/11/28/22:58:31.626614,2412,1669697911,626277685,RU_myo,0.4366394584965054,-0.10693211228485845,-0.616873777889877,-0.6460481783876865,"(0.0, 0.0, 0.0, 0.0, 0.0, 0.0, 0.0, 0.0, 0.0)",14.5,-2.3125,14.125,"(0.0, 0.0, 0.0, 0.0, 0.0, 0.0, 0.0, 0.0, 0.0)",0.63232421875,0.849609375,0.25537109375,"(0.0, 0.0, 0.0, 0.0, 0.0, 0.0, 0.0, 0.0, 0.0)"
2022/11/28/22:58:31.648838,2413,1669697911,648466825,RU_myo,0.43778160391392684,-0.10894188805051713,-0.6159946644783583,-0.6457782170658386,"(0.0, 0.0, 0.0, 0.0, 0.0, 0.0, 0.0, 0.0, 0.0)",-4.6875,-3.75,14.375,"(0.0, 0.0, 0.0, 0.0, 0.0, 0.0, 0.0, 0.0, 0.0)",0.69287109375,0.74951171875,0.2734375,"(0.0, 0.0, 0.0, 0.0, 0.0, 0.0, 0.0, 0.0, 0.0)"
2022/11/28/22:58:31.663506,2414,1669697911,663181066,RU_myo,0.4384699684010731,-0.1115095534895268,-0.6142485748870267,-0.646535686981148,"(0.0, 0.0, 0.0, 0.0, 0.0, 0.0, 0.0, 0.0, 0.0)",-13.5,-3.75,11.125,"(0.0, 0.0, 0.0, 0.0, 0.0, 0.0, 0.0, 0.0, 0.0)",0.70654296875,0.73046875,0.2607421875,"(0.0, 0.0, 0.0, 0.0, 0.0, 0.0, 0.0, 0.0, 0.0)"
2022/11/28/22:58:31.686331,2415,1669697911,685964584,RU_myo,0.4380984851310195,-0.11260681318845514,-0.6127763709550621,-0.6479927022340533,"(0.0, 0.0, 0.0, 0.0, 0.0, 0.0, 0.0, 0.0, 0.0)",-13.0625,-2.4375,2.25,"(0.0, 0.0, 0.0, 0.0, 0.0, 0.0, 0.0, 0.0, 0.0)",0.685546875,0.75634765625,0.2587890625,"(0.0, 0.0, 0.0, 0.0, 0.0, 0.0, 0.0, 0.0, 0.0)"
2022/11/28/22:58:31.709074,2416,1669697911,708477973,RU_myo,0.4381090189685301,-0.11315883549284687,-0.6108379857672123,-0.6497172620395658,"(0.0, 0.0, 0.0, 0.0, 0.0, 0.0, 0.0, 0.0, 0.0)",-12.8125,1.75,0.8125,"(0.0, 0.0, 0.0, 0.0, 0.0, 0.0, 0.0, 0.0, 0.0)",0.68212890625,0.73095703125,0.2734375,"(0.0, 0.0, 0.0, 0.0, 0.0, 0.0, 0.0, 0.0, 0.0)"
2022/11/28/22:58:31.722917,2417,1669697911,722650051,RU_myo,0.43911855817339934,-0.11339573051927394,-0.6084187500251033,-0.65126256209428,"(0.0, 0.0, 0.0, 0.0, 0.0, 0.0, 0.0, 0.0, 0.0)",-12.3125,7.6875,1.625,"(0.0, 0.0, 0.0, 0.0, 0.0, 0.0, 0.0, 0.0, 0.0)",0.68896484375,0.6865234375,0.27685546875,"(0.0, 0.0, 0.0, 0.0, 0.0, 0.0, 0.0, 0.0, 0.0)"
2022/11/28/22:58:31.747518,2418,1669697911,746147155,RU_myo,0.44005109742610776,-0.1137052974347904,-0.6066113533034792,-0.6522643659074637,"(0.0, 0.0, 0.0, 0.0, 0.0, 0.0, 0.0, 0.0, 0.0)",-10.125,7.9375,1.1875,"(0.0, 0.0, 0.0, 0.0, 0.0, 0.0, 0.0, 0.0, 0.0)",0.6982421875,0.6669921875,0.2333984375,"(0.0, 0.0, 0.0, 0.0, 0.0, 0.0, 0.0, 0.0, 0.0)"
2022/11/28/22:58:31.769628,2419,1669697911,768262863,RU_myo,0.4404239270154562,-0.11358494015739523,-0.6058270370780791,-0.6527624583467716,"(0.0, 0.0, 0.0, 0.0, 0.0, 0.0, 0.0, 0.0, 0.0)",-4.5,4.3125,-0.625,"(0.0, 0.0, 0.0, 0.0, 0.0, 0.0, 0.0, 0.0, 0.0)",0.71728515625,0.70849609375,0.2412109375,"(0.0, 0.0, 0.0, 0.0, 0.0, 0.0, 0.0, 0.0, 0.0)"
2022/11/28/22:58:31.783235,2420,1669697911,782907724,RU_myo,0.4405955304476843,-0.11223925481275682,-0.605445028680015,-0.6532336836655445,"(0.0, 0.0, 0.0, 0.0, 0.0, 0.0, 0.0, 0.0, 0.0)",2.1875,4.1875,-2.375,"(0.0, 0.0, 0.0, 0.0, 0.0, 0.0, 0.0, 0.0, 0.0)",0.69287109375,0.76025390625,0.30224609375,"(0.0, 0.0, 0.0, 0.0, 0.0, 0.0, 0.0, 0.0, 0.0)"
2022/11/28/22:58:31.807617,2421,1669697911,806253671,RU_myo,0.4406017253543434,-0.11077602597563835,-0.6048432051892981,-0.6540363054297194,"(0.0, 0.0, 0.0, 0.0, 0.0, 0.0, 0.0, 0.0, 0.0)",0.375,4.9375,-4.0,"(0.0, 0.0, 0.0, 0.0, 0.0, 0.0, 0.0, 0.0, 0.0)",0.67529296875,0.74853515625,0.29833984375,"(0.0, 0.0, 0.0, 0.0, 0.0, 0.0, 0.0, 0.0, 0.0)"
2022/11/28/22:58:31.828641,2422,1669697911,828215599,RU_myo,0.44072386812073006,-0.11047087678971354,-0.6028902325573428,-0.6558063928759513,"(0.0, 0.0, 0.0, 0.0, 0.0, 0.0, 0.0, 0.0, 0.0)",-11.5625,6.5,-3.625,"(0.0, 0.0, 0.0, 0.0, 0.0, 0.0, 0.0, 0.0, 0.0)",0.703125,0.7275390625,0.283203125,"(0.0, 0.0, 0.0, 0.0, 0.0, 0.0, 0.0, 0.0, 0.0)"
2022/11/28/22:58:31.850437,2423,1669697911,849073410,RU_myo,0.441750965149733,-0.10949174239826209,-0.5987257485657476,-0.6590865809135074,"(0.0, 0.0, 0.0, 0.0, 0.0, 0.0, 0.0, 0.0, 0.0)",-19.0,14.5,-3.875,"(0.0, 0.0, 0.0, 0.0, 0.0, 0.0, 0.0, 0.0, 0.0)",0.6923828125,0.74169921875,0.3779296875,"(0.0, 0.0, 0.0, 0.0, 0.0, 0.0, 0.0, 0.0, 0.0)"
2022/11/28/22:58:31.866602,2424,1669697911,865894556,RU_myo,0.44372056005626065,-0.10626100344676062,-0.5930108612801415,-0.663444633811768,"(0.0, 0.0, 0.0, 0.0, 0.0, 0.0, 0.0, 0.0, 0.0)",-19.875,28.0625,-8.125,"(0.0, 0.0, 0.0, 0.0, 0.0, 0.0, 0.0, 0.0, 0.0)",0.658203125,0.74853515625,0.443359375,"(0.0, 0.0, 0.0, 0.0, 0.0, 0.0, 0.0, 0.0, 0.0)"
2022/11/28/22:58:31.888915,2425,1669697911,888477325,RU_myo,0.44603775287263264,-0.1021712094018592,-0.5855008433644178,-0.6691786976594888,"(0.0, 0.0, 0.0, 0.0, 0.0, 0.0, 0.0, 0.0, 0.0)",-30.9375,39.8125,-13.0625,"(0.0, 0.0, 0.0, 0.0, 0.0, 0.0, 0.0, 0.0, 0.0)",0.6337890625,0.7099609375,0.41015625,"(0.0, 0.0, 0.0, 0.0, 0.0, 0.0, 0.0, 0.0, 0.0)"
2022/11/28/22:58:31.909695,2426,1669697911,909217119,RU_myo,0.44853967200812345,-0.09826491657818462,-0.5764061317791153,-0.6759527646604936,"(0.0, 0.0, 0.0, 0.0, 0.0, 0.0, 0.0, 0.0, 0.0)",-41.8125,46.625,-16.125,"(0.0, 0.0, 0.0, 0.0, 0.0, 0.0, 0.0, 0.0, 0.0)",0.65771484375,0.68603515625,0.40185546875,"(0.0, 0.0, 0.0, 0.0, 0.0, 0.0, 0.0, 0.0, 0.0)"
2022/11/28/22:58:31.926228,2427,1669697911,925903081,RU_myo,0.4515811556390579,-0.09380730317843383,-0.5665057827600669,-0.6828951953568615,"(0.0, 0.0, 0.0, 0.0, 0.0, 0.0, 0.0, 0.0, 0.0)",-43.875,53.875,-17.3125,"(0.0, 0.0, 0.0, 0.0, 0.0, 0.0, 0.0, 0.0, 0.0)",0.70166015625,0.705078125,0.43994140625,"(0.0, 0.0, 0.0, 0.0, 0.0, 0.0, 0.0, 0.0, 0.0)"
2022/11/28/22:58:31.948971,2428,1669697911,948557376,RU_myo,0.45482592438253844,-0.08856044233481794,-0.5552269772018186,-0.690661588877188,"(0.0, 0.0, 0.0, 0.0, 0.0, 0.0, 0.0, 0.0, 0.0)",-50.75,62.5,-20.0,"(0.0, 0.0, 0.0, 0.0, 0.0, 0.0, 0.0, 0.0, 0.0)",0.6884765625,0.71826171875,0.44677734375,"(0.0, 0.0, 0.0, 0.0, 0.0, 0.0, 0.0, 0.0, 0.0)"
2022/11/28/22:58:31.969635,2429,1669697911,969267368,RU_myo,0.4576966017244703,-0.08282361495400803,-0.5428395220345964,-0.6992705648696167,"(0.0, 0.0, 0.0, 0.0, 0.0, 0.0, 0.0, 0.0, 0.0)",-60.0625,68.1875,-22.875,"(0.0, 0.0, 0.0, 0.0, 0.0, 0.0, 0.0, 0.0, 0.0)",0.65966796875,0.74267578125,0.43603515625,"(0.0, 0.0, 0.0, 0.0, 0.0, 0.0, 0.0, 0.0, 0.0)"
2022/11/28/22:58:31.986506,2430,1669697911,986097097,RU_myo,0.4603806725863051,-0.0774523496635319,-0.530142718027926,-0.7078131592182659,"(0.0, 0.0, 0.0, 0.0, 0.0, 0.0, 0.0, 0.0, 0.0)",-63.625,69.0625,-23.0,"(0.0, 0.0, 0.0, 0.0, 0.0, 0.0, 0.0, 0.0, 0.0)",0.65283203125,0.72802734375,0.423828125,"(0.0, 0.0, 0.0, 0.0, 0.0, 0.0, 0.0, 0.0, 0.0)"
2022/11/28/22:58:32.009201,2431,1669697912,8466482,RU_myo,0.46300592884798886,-0.0719593975892142,-0.5173264240595246,-0.7161150228280323,"(0.0, 0.0, 0.0, 0.0, 0.0, 0.0, 0.0, 0.0, 0.0)",-63.125,69.625,-23.5,"(0.0, 0.0, 0.0, 0.0, 0.0, 0.0, 0.0, 0.0, 0.0)",0.63720703125,0.7099609375,0.44677734375,"(0.0, 0.0, 0.0, 0.0, 0.0, 0.0, 0.0, 0.0, 0.0)"
2022/11/28/22:58:32.029970,2432,1669697912,29341220,RU_myo,0.4655772871023199,-0.0664674443700087,-0.5048840218812782,-0.7238176517758799,"(0.0, 0.0, 0.0, 0.0, 0.0, 0.0, 0.0, 0.0, 0.0)",-59.5,68.125,-22.0,"(0.0, 0.0, 0.0, 0.0, 0.0, 0.0, 0.0, 0.0, 0.0)",0.60546875,0.68896484375,0.46826171875,"(0.0, 0.0, 0.0, 0.0, 0.0, 0.0, 0.0, 0.0, 0.0)"
2022/11/28/22:58:32.046428,2433,1669697912,46011447,RU_myo,0.4678161148791551,-0.06145999056533714,-0.4940602022109276,-0.7302569881968807,"(0.0, 0.0, 0.0, 0.0, 0.0, 0.0, 0.0, 0.0, 0.0)",-51.1875,61.75,-20.75,"(0.0, 0.0, 0.0, 0.0, 0.0, 0.0, 0.0, 0.0, 0.0)",0.5927734375,0.65283203125,0.45458984375,"(0.0, 0.0, 0.0, 0.0, 0.0, 0.0, 0.0, 0.0, 0.0)"
2022/11/28/22:58:32.069137,2434,1669697912,68582057,RU_myo,0.46977643507200756,-0.05627307693080303,-0.4863165693976557,-0.7346016854003745,"(0.0, 0.0, 0.0, 0.0, 0.0, 0.0, 0.0, 0.0, 0.0)",-32.75,54.0,-18.1875,"(0.0, 0.0, 0.0, 0.0, 0.0, 0.0, 0.0, 0.0, 0.0)",0.55859375,0.61279296875,0.4296875,"(0.0, 0.0, 0.0, 0.0, 0.0, 0.0, 0.0, 0.0, 0.0)"
2022/11/28/22:58:32.089936,2435,1669697912,89539766,RU_myo,0.4714359604687146,-0.051147505809526525,-0.4818119461341317,-0.736878087874002,"(0.0, 0.0, 0.0, 0.0, 0.0, 0.0, 0.0, 0.0, 0.0)",-14.375,43.3125,-14.3125,"(0.0, 0.0, 0.0, 0.0, 0.0, 0.0, 0.0, 0.0, 0.0)",0.533203125,0.6044921875,0.4130859375,"(0.0, 0.0, 0.0, 0.0, 0.0, 0.0, 0.0, 0.0, 0.0)"
2022/11/28/22:58:32.106143,2436,1669697912,105819225,RU_myo,0.473006901956154,-0.045530728885069795,-0.4798426146037785,-0.7375245681597633,"(0.0, 0.0, 0.0, 0.0, 0.0, 0.0, 0.0, 0.0, 0.0)",1.6875,37.5625,-11.1875,"(0.0, 0.0, 0.0, 0.0, 0.0, 0.0, 0.0, 0.0, 0.0)",0.51416015625,0.62841796875,0.42138671875,"(0.0, 0.0, 0.0, 0.0, 0.0, 0.0, 0.0, 0.0, 0.0)"
2022/11/28/22:58:32.129124,2437,1669697912,128483772,RU_myo,0.4741781058309422,-0.03973354960689193,-0.47954915401129017,-0.7372984320295768,"(0.0, 0.0, 0.0, 0.0, 0.0, 0.0, 0.0, 0.0, 0.0)",10.8125,31.875,-10.3125,"(0.0, 0.0, 0.0, 0.0, 0.0, 0.0, 0.0, 0.0, 0.0)",0.4853515625,0.63037109375,0.41064453125,"(0.0, 0.0, 0.0, 0.0, 0.0, 0.0, 0.0, 0.0, 0.0)"
2022/11/28/22:58:32.157305,2438,1669697912,156810998,RU_myo,0.4752102865514015,-0.03503348375038588,-0.48003196811286575,-0.7365576339715275,"(0.0, 0.0, 0.0, 0.0, 0.0, 0.0, 0.0, 0.0, 0.0)",11.3125,25.5625,-6.75,"(0.0, 0.0, 0.0, 0.0, 0.0, 0.0, 0.0, 0.0, 0.0)",0.4794921875,0.6376953125,0.384765625,"(0.0, 0.0, 0.0, 0.0, 0.0, 0.0, 0.0, 0.0, 0.0)"
2022/11/28/22:58:32.166351,2439,1669697912,166054487,RU_myo,0.47527079555668417,-0.03253105612324549,-0.4803366072982027,-0.7364347526887057,"(0.0, 0.0, 0.0, 0.0, 0.0, 0.0, 0.0, 0.0, 0.0)",1.6875,14.9375,-6.0,"(0.0, 0.0, 0.0, 0.0, 0.0, 0.0, 0.0, 0.0, 0.0)",0.49267578125,0.6630859375,0.38232421875,"(0.0, 0.0, 0.0, 0.0, 0.0, 0.0, 0.0, 0.0, 0.0)"
2022/11/28/22:58:32.189127,2440,1669697912,188688278,RU_myo,0.47460682017725214,-0.03118879695352056,-0.4802220243254398,-0.7369955444496297,"(0.0, 0.0, 0.0, 0.0, 0.0, 0.0, 0.0, 0.0, 0.0)",-3.5625,7.1875,-7.5,"(0.0, 0.0, 0.0, 0.0, 0.0, 0.0, 0.0, 0.0, 0.0)",0.482421875,0.669921875,0.43115234375,"(0.0, 0.0, 0.0, 0.0, 0.0, 0.0, 0.0, 0.0, 0.0)"
2022/11/28/22:58:32.209560,2441,1669697912,209166288,RU_myo,0.473821868239146,-0.030762105061513535,-0.4805358197406668,-0.7373139467124673,"(0.0, 0.0, 0.0, 0.0, 0.0, 0.0, 0.0, 0.0, 0.0)",0.9375,-0.875,-5.0,"(0.0, 0.0, 0.0, 0.0, 0.0, 0.0, 0.0, 0.0, 0.0)",0.47216796875,0.654296875,0.49951171875,"(0.0, 0.0, 0.0, 0.0, 0.0, 0.0, 0.0, 0.0, 0.0)"
2022/11/28/22:58:32.226566,2442,1669697912,226109266,RU_myo,0.4738062322693887,-0.030944191647633658,-0.48076409784696317,-0.7371675477714386,"(0.0, 0.0, 0.0, 0.0, 0.0, 0.0, 0.0, 0.0, 0.0)",1.625,-1.6875,0.0625,"(0.0, 0.0, 0.0, 0.0, 0.0, 0.0, 0.0, 0.0, 0.0)",0.46826171875,0.61279296875,0.50439453125,"(0.0, 0.0, 0.0, 0.0, 0.0, 0.0, 0.0, 0.0, 0.0)"
2022/11/28/22:58:32.249262,2443,1669697912,248861551,RU_myo,0.4739206267517864,-0.031920217358813174,-0.4805121821528415,-0.73721664527171,"(0.0, 0.0, 0.0, 0.0, 0.0, 0.0, 0.0, 0.0, 0.0)",-3.5625,-2.0,1.625,"(0.0, 0.0, 0.0, 0.0, 0.0, 0.0, 0.0, 0.0, 0.0)",0.49462890625,0.62890625,0.49951171875,"(0.0, 0.0, 0.0, 0.0, 0.0, 0.0, 0.0, 0.0, 0.0)"
2022/11/28/22:58:32.270398,2444,1669697912,269105195,RU_myo,0.4739809243056782,-0.0319812006613669,-0.4804504038287791,-0.7372155015050588,"(0.0, 0.0, 0.0, 0.0, 0.0, 0.0, 0.0, 0.0, 0.0)",0.0,-0.5,0.3125,"(0.0, 0.0, 0.0, 0.0, 0.0, 0.0, 0.0, 0.0, 0.0)",0.52880859375,0.65478515625,0.5673828125,"(0.0, 0.0, 0.0, 0.0, 0.0, 0.0, 0.0, 0.0, 0.0)"
2022/11/28/22:58:32.286852,2445,1669697912,286392211,RU_myo,0.47459216035881097,-0.031798163007579795,-0.4805123557748095,-0.7367896810508701,"(0.0, 0.0, 0.0, 0.0, 0.0, 0.0, 0.0, 0.0, 0.0)",4.9375,1.1875,1.5625,"(0.0, 0.0, 0.0, 0.0, 0.0, 0.0, 0.0, 0.0, 0.0)",0.52783203125,0.6728515625,0.59033203125,"(0.0, 0.0, 0.0, 0.0, 0.0, 0.0, 0.0, 0.0, 0.0)"
2022/11/28/22:58:32.308809,2446,1669697912,308322668,RU_myo,0.4751473958899597,-0.03124925712211424,-0.48064042936845636,-0.7363716546451334,"(0.0, 0.0, 0.0, 0.0, 0.0, 0.0, 0.0, 0.0, 0.0)",4.5,1.6875,2.75,"(0.0, 0.0, 0.0, 0.0, 0.0, 0.0, 0.0, 0.0, 0.0)",0.50732421875,0.71240234375,0.58740234375,"(0.0, 0.0, 0.0, 0.0, 0.0, 0.0, 0.0, 0.0, 0.0)"
2022/11/28/22:58:32.329826,2447,1669697912,329090833,RU_myo,0.4752677636944677,-0.03094397793670157,-0.4806387105552759,-0.7363079878271553,"(0.0, 0.0, 0.0, 0.0, 0.0, 0.0, 0.0, 0.0, 0.0)",-0.75,1.3125,2.0625,"(0.0, 0.0, 0.0, 0.0, 0.0, 0.0, 0.0, 0.0, 0.0)",0.49169921875,0.72216796875,0.5380859375,"(0.0, 0.0, 0.0, 0.0, 0.0, 0.0, 0.0, 0.0, 0.0)"
2022/11/28/22:58:32.346444,2448,1669697912,346007823,RU_myo,0.4747106861066046,-0.03143173095203155,-0.47995948001315747,-0.7370893489469612,"(0.0, 0.0, 0.0, 0.0, 0.0, 0.0, 0.0, 0.0, 0.0)",-9.3125,-1.625,-0.6875,"(0.0, 0.0, 0.0, 0.0, 0.0, 0.0, 0.0, 0.0, 0.0)",0.49560546875,0.74365234375,0.5263671875,"(0.0, 0.0, 0.0, 0.0, 0.0, 0.0, 0.0, 0.0, 0.0)"
2022/11/28/22:58:32.368838,2449,1669697912,368464708,RU_myo,0.47393811804971264,-0.03222657132392122,-0.47827161533001267,-0.7386476631857852,"(0.0, 0.0, 0.0, 0.0, 0.0, 0.0, 0.0, 0.0, 0.0)",-14.0,-2.125,-2.9375,"(0.0, 0.0, 0.0, 0.0, 0.0, 0.0, 0.0, 0.0, 0.0)",0.49365234375,0.7197265625,0.5751953125,"(0.0, 0.0, 0.0, 0.0, 0.0, 0.0, 0.0, 0.0, 0.0)"
2022/11/28/22:58:32.391043,2450,1669697912,390669822,RU_myo,0.4733770234381522,-0.03326334164179899,-0.4766118071207492,-0.7400330594620417,"(0.0, 0.0, 0.0, 0.0, 0.0, 0.0, 0.0, 0.0, 0.0)",-12.6875,-1.875,-3.5,"(0.0, 0.0, 0.0, 0.0, 0.0, 0.0, 0.0, 0.0, 0.0)",0.5048828125,0.67578125,0.56591796875,"(0.0, 0.0, 0.0, 0.0, 0.0, 0.0, 0.0, 0.0, 0.0)"
2022/11/28/22:58:32.405967,2451,1669697912,405620336,RU_myo,0.4728488447602331,-0.03381415515646949,-0.4757175546742296,-0.7409206307660345,"(0.0, 0.0, 0.0, 0.0, 0.0, 0.0, 0.0, 0.0, 0.0)",-6.6875,-1.1875,-3.875,"(0.0, 0.0, 0.0, 0.0, 0.0, 0.0, 0.0, 0.0, 0.0)",0.5205078125,0.6669921875,0.5634765625,"(0.0, 0.0, 0.0, 0.0, 0.0, 0.0, 0.0, 0.0, 0.0)"
2022/11/28/22:58:32.429280,2452,1669697912,428838491,RU_myo,0.4724563443964198,-0.03350710929771793,-0.4758131586247886,-0.7411235486378667,"(0.0, 0.0, 0.0, 0.0, 0.0, 0.0, 0.0, 0.0, 0.0)",1.625,-0.1875,-3.75,"(0.0, 0.0, 0.0, 0.0, 0.0, 0.0, 0.0, 0.0, 0.0)",0.50439453125,0.66455078125,0.55859375,"(0.0, 0.0, 0.0, 0.0, 0.0, 0.0, 0.0, 0.0, 0.0)"
2022/11/28/22:58:32.451265,2453,1669697912,450948715,RU_myo,0.4724613989444291,-0.03289713138238565,-0.47612341728013063,-0.7409483765902816,"(0.0, 0.0, 0.0, 0.0, 0.0, 0.0, 0.0, 0.0, 0.0)",5.5625,1.1875,-2.6875,"(0.0, 0.0, 0.0, 0.0, 0.0, 0.0, 0.0, 0.0, 0.0)",0.51513671875,0.66064453125,0.57861328125,"(0.0, 0.0, 0.0, 0.0, 0.0, 0.0, 0.0, 0.0, 0.0)"
2022/11/28/22:58:32.466430,2454,1669697912,466159820,RU_myo,0.47282566684678157,-0.03216459615699676,-0.4766707703721911,-0.7403960455038476,"(0.0, 0.0, 0.0, 0.0, 0.0, 0.0, 0.0, 0.0, 0.0)",7.6875,2.5,-0.6875,"(0.0, 0.0, 0.0, 0.0, 0.0, 0.0, 0.0, 0.0, 0.0)",0.5185546875,0.658203125,0.5703125,"(0.0, 0.0, 0.0, 0.0, 0.0, 0.0, 0.0, 0.0, 0.0)"
2022/11/28/22:58:32.488716,2455,1669697912,488395452,RU_myo,0.4731269458816381,-0.031187805643126558,-0.47758234668779903,-0.7396575667104711,"(0.0, 0.0, 0.0, 0.0, 0.0, 0.0, 0.0, 0.0, 0.0)",9.25,2.0625,0.0625,"(0.0, 0.0, 0.0, 0.0, 0.0, 0.0, 0.0, 0.0, 0.0)",0.50537109375,0.6708984375,0.548828125,"(0.0, 0.0, 0.0, 0.0, 0.0, 0.0, 0.0, 0.0, 0.0)"
2022/11/28/22:58:32.511317,2456,1669697912,510759115,RU_myo,0.47312235488550153,-0.03039408316988903,-0.4783101000048601,-0.7392231633608352,"(0.0, 0.0, 0.0, 0.0, 0.0, 0.0, 0.0, 0.0, 0.0)",6.25,0.625,-0.3125,"(0.0, 0.0, 0.0, 0.0, 0.0, 0.0, 0.0, 0.0, 0.0)",0.4794921875,0.68701171875,0.5439453125,"(0.0, 0.0, 0.0, 0.0, 0.0, 0.0, 0.0, 0.0, 0.0)"
2022/11/28/22:58:32.532348,2457,1669697912,531791925,RU_myo,0.47313616616876997,-0.0303949704272507,-0.4782630286504749,-0.7392447426001215,"(0.0, 0.0, 0.0, 0.0, 0.0, 0.0, 0.0, 0.0, 0.0)",0.6875,0.3125,-0.875,"(0.0, 0.0, 0.0, 0.0, 0.0, 0.0, 0.0, 0.0, 0.0)",0.49365234375,0.67138671875,0.564453125,"(0.0, 0.0, 0.0, 0.0, 0.0, 0.0, 0.0, 0.0, 0.0)"
2022/11/28/22:58:32.548949,2458,1669697912,548629283,RU_myo,0.47331356811212716,-0.030638737742396883,-0.47770796874450283,-0.7394799730814355,"(0.0, 0.0, 0.0, 0.0, 0.0, 0.0, 0.0, 0.0, 0.0)",-2.1875,0.875,-0.125,"(0.0, 0.0, 0.0, 0.0, 0.0, 0.0, 0.0, 0.0, 0.0)",0.50537109375,0.65625,0.556640625,"(0.0, 0.0, 0.0, 0.0, 0.0, 0.0, 0.0, 0.0, 0.0)"
2022/11/28/22:58:32.570990,2459,1669697912,570752859,RU_myo,0.47350143490073626,-0.031188351796117068,-0.47728554020672304,-0.7396094854507762,"(0.0, 0.0, 0.0, 0.0, 0.0, 0.0, 0.0, 0.0, 0.0)",-3.9375,-0.0625,1.4375,"(0.0, 0.0, 0.0, 0.0, 0.0, 0.0, 0.0, 0.0, 0.0)",0.5068359375,0.67333984375,0.53369140625,"(0.0, 0.0, 0.0, 0.0, 0.0, 0.0, 0.0, 0.0, 0.0)"
2022/11/28/22:58:32.585256,2460,1669697912,584939956,RU_myo,0.47361088581442967,-0.03185887659731086,-0.47678456700803157,-0.7398339120931078,"(0.0, 0.0, 0.0, 0.0, 0.0, 0.0, 0.0, 0.0, 0.0)",-4.4375,-1.5,1.5,"(0.0, 0.0, 0.0, 0.0, 0.0, 0.0, 0.0, 0.0, 0.0)",0.5068359375,0.68212890625,0.5517578125,"(0.0, 0.0, 0.0, 0.0, 0.0, 0.0, 0.0, 0.0, 0.0)"
2022/11/28/22:58:32.608773,2461,1669697912,608387947,RU_myo,0.47387065102541825,-0.03247027129643515,-0.4760678874289364,-0.7401024619183696,"(0.0, 0.0, 0.0, 0.0, 0.0, 0.0, 0.0, 0.0, 0.0)",-3.9375,-0.3125,1.4375,"(0.0, 0.0, 0.0, 0.0, 0.0, 0.0, 0.0, 0.0, 0.0)",0.5087890625,0.6669921875,0.5703125,"(0.0, 0.0, 0.0, 0.0, 0.0, 0.0, 0.0, 0.0, 0.0)"
2022/11/28/22:58:32.631430,2462,1669697912,631142616,RU_myo,0.47423150431569006,-0.032836106733827704,-0.4756963120510281,-0.740094108279544,"(0.0, 0.0, 0.0, 0.0, 0.0, 0.0, 0.0, 0.0, 0.0)",-1.125,0.0625,2.0625,"(0.0, 0.0, 0.0, 0.0, 0.0, 0.0, 0.0, 0.0, 0.0)",0.5068359375,0.662109375,0.56494140625,"(0.0, 0.0, 0.0, 0.0, 0.0, 0.0, 0.0, 0.0, 0.0)"
2022/11/28/22:58:32.646038,2463,1669697912,645848512,RU_myo,0.47465795838273755,-0.032897086224546165,-0.4761227637062795,-0.7395435877232391,"(0.0, 0.0, 0.0, 0.0, 0.0, 0.0, 0.0, 0.0, 0.0)",3.1875,-0.25,2.9375,"(0.0, 0.0, 0.0, 0.0, 0.0, 0.0, 0.0, 0.0, 0.0)",0.50830078125,0.677734375,0.5458984375,"(0.0, 0.0, 0.0, 0.0, 0.0, 0.0, 0.0, 0.0, 0.0)"
2022/11/28/22:58:32.668948,2464,1669697912,668513298,RU_myo,0.47509073883803754,-0.032531264619819374,-0.4765555612599431,-0.7390029118513565,"(0.0, 0.0, 0.0, 0.0, 0.0, 0.0, 0.0, 0.0, 0.0)",4.6875,0.875,2.8125,"(0.0, 0.0, 0.0, 0.0, 0.0, 0.0, 0.0, 0.0, 0.0)",0.5048828125,0.69677734375,0.5712890625,"(0.0, 0.0, 0.0, 0.0, 0.0, 0.0, 0.0, 0.0, 0.0)"
2022/11/28/22:58:32.691323,2465,1669697912,690953254,RU_myo,0.4755160718202287,-0.031859759914023796,-0.47637054813976193,-0.7388778803049274,"(0.0, 0.0, 0.0, 0.0, 0.0, 0.0, 0.0, 0.0, 0.0)",1.75,3.1875,1.3125,"(0.0, 0.0, 0.0, 0.0, 0.0, 0.0, 0.0, 0.0, 0.0)",0.505859375,0.708984375,0.58203125,"(0.0, 0.0, 0.0, 0.0, 0.0, 0.0, 0.0, 0.0, 0.0)"
2022/11/28/22:58:32.705715,2466,1669697912,705386161,RU_myo,0.4758027770373172,-0.03137027031775026,-0.47549761876574376,-0.7392764287138306,"(0.0, 0.0, 0.0, 0.0, 0.0, 0.0, 0.0, 0.0, 0.0)",-3.3125,4.1875,0.125,"(0.0, 0.0, 0.0, 0.0, 0.0, 0.0, 0.0, 0.0, 0.0)",0.50537109375,0.71435546875,0.58154296875,"(0.0, 0.0, 0.0, 0.0, 0.0, 0.0, 0.0, 0.0, 0.0)"
2022/11/28/22:58:32.728877,2467,1669697912,728515625,RU_myo,0.47617334087910423,-0.030821268539342174,-0.47391514892671677,-0.7400766382337884,"(0.0, 0.0, 0.0, 0.0, 0.0, 0.0, 0.0, 0.0, 0.0)",-5.5,5.625,-0.5625,"(0.0, 0.0, 0.0, 0.0, 0.0, 0.0, 0.0, 0.0, 0.0)",0.494140625,0.7041015625,0.61279296875,"(0.0, 0.0, 0.0, 0.0, 0.0, 0.0, 0.0, 0.0, 0.0)"
2022/11/28/22:58:32.751242,2468,1669697912,750934600,RU_myo,0.47697461185304624,-0.029845244426889263,-0.4719088546190343,-0.7408822537791591,"(0.0, 0.0, 0.0, 0.0, 0.0, 0.0, 0.0, 0.0, 0.0)",-5.4375,9.4375,-0.75,"(0.0, 0.0, 0.0, 0.0, 0.0, 0.0, 0.0, 0.0, 0.0)",0.5,0.69775390625,0.62744140625,"(0.0, 0.0, 0.0, 0.0, 0.0, 0.0, 0.0, 0.0, 0.0)"
2022/11/28/22:58:32.766611,2469,1669697912,766235113,RU_myo,0.4778272649609971,-0.028441372521627876,-0.4694047125833476,-0.741978038080322,"(0.0, 0.0, 0.0, 0.0, 0.0, 0.0, 0.0, 0.0, 0.0)",-7.0,13.1875,-2.625,"(0.0, 0.0, 0.0, 0.0, 0.0, 0.0, 0.0, 0.0, 0.0)",0.5126953125,0.70263671875,0.64013671875,"(0.0, 0.0, 0.0, 0.0, 0.0, 0.0, 0.0, 0.0, 0.0)"
2022/11/28/22:58:32.788855,2470,1669697912,788394451,RU_myo,0.47881543714569763,-0.02624482319600382,-0.46587612896534225,-0.7436440135351409,"(0.0, 0.0, 0.0, 0.0, 0.0, 0.0, 0.0, 0.0, 0.0)",-9.5,18.875,-5.0,"(0.0, 0.0, 0.0, 0.0, 0.0, 0.0, 0.0, 0.0, 0.0)",0.505859375,0.71484375,0.68212890625,"(0.0, 0.0, 0.0, 0.0, 0.0, 0.0, 0.0, 0.0, 0.0)"
2022/11/28/22:58:32.811659,2471,1669697912,811047315,RU_myo,0.4807656711714125,-0.022460551858712683,-0.46141785883659747,-0.7452874965944037,"(0.0, 0.0, 0.0, 0.0, 0.0, 0.0, 0.0, 0.0, 0.0)",-7.0,29.375,-5.375,"(0.0, 0.0, 0.0, 0.0, 0.0, 0.0, 0.0, 0.0, 0.0)",0.50732421875,0.7197265625,0.74609375,"(0.0, 0.0, 0.0, 0.0, 0.0, 0.0, 0.0, 0.0, 0.0)"
2022/11/28/22:58:32.832376,2472,1669697912,831767082,RU_myo,0.4838207775597295,-0.01654035962138094,-0.4558669594542223,-0.7468796335307696,"(0.0, 0.0, 0.0, 0.0, 0.0, 0.0, 0.0, 0.0, 0.0)",-3.9375,44.375,-7.5625,"(0.0, 0.0, 0.0, 0.0, 0.0, 0.0, 0.0, 0.0, 0.0)",0.52587890625,0.71826171875,0.78564453125,"(0.0, 0.0, 0.0, 0.0, 0.0, 0.0, 0.0, 0.0, 0.0)"
2022/11/28/22:58:32.849205,2473,1669697912,848835229,RU_myo,0.48752769094693943,-0.008910746479500896,-0.44901617705265817,-0.7487468343186096,"(0.0, 0.0, 0.0, 0.0, 0.0, 0.0, 0.0, 0.0, 0.0)",-7.125,57.6875,-8.375,"(0.0, 0.0, 0.0, 0.0, 0.0, 0.0, 0.0, 0.0, 0.0)",0.51171875,0.7568359375,0.79931640625,"(0.0, 0.0, 0.0, 0.0, 0.0, 0.0, 0.0, 0.0, 0.0)"
2022/11/28/22:58:32.871192,2474,1669697912,870888948,RU_myo,0.4912078532269696,6.103477301527952e-05,-0.44183072185760847,-0.7506666733149229,"(0.0, 0.0, 0.0, 0.0, 0.0, 0.0, 0.0, 0.0, 0.0)",-7.3125,64.1875,-10.625,"(0.0, 0.0, 0.0, 0.0, 0.0, 0.0, 0.0, 0.0, 0.0)",0.47998046875,0.794921875,0.80029296875,"(0.0, 0.0, 0.0, 0.0, 0.0, 0.0, 0.0, 0.0, 0.0)"
2022/11/28/22:58:32.892553,2475,1669697912,891960382,RU_myo,0.494865199087379,0.00848375217971703,-0.4329154979189417,-0.7534060209095469,"(0.0, 0.0, 0.0, 0.0, 0.0, 0.0, 0.0, 0.0, 0.0)",-17.3125,67.1875,-12.6875,"(0.0, 0.0, 0.0, 0.0, 0.0, 0.0, 0.0, 0.0, 0.0)",0.453125,0.744140625,0.79638671875,"(0.0, 0.0, 0.0, 0.0, 0.0, 0.0, 0.0, 0.0, 0.0)"
2022/11/28/22:58:32.910558,2476,1669697912,909073352,RU_myo,0.49950453425520214,0.016174083770482475,-0.42168582932174875,-0.7565809147883047,"(0.0, 0.0, 0.0, 0.0, 0.0, 0.0, 0.0, 0.0, 0.0)",-28.5625,74.875,-11.125,"(0.0, 0.0, 0.0, 0.0, 0.0, 0.0, 0.0, 0.0, 0.0)",0.47021484375,0.69189453125,0.81640625,"(0.0, 0.0, 0.0, 0.0, 0.0, 0.0, 0.0, 0.0, 0.0)"
2022/11/28/22:58:32.938757,2477,1669697912,938352108,RU_myo,0.5052435284463316,0.02362034857558955,-0.409602478787549,-0.7592080515032518,"(0.0, 0.0, 0.0, 0.0, 0.0, 0.0, 0.0, 0.0, 0.0)",-30.25,78.6875,-4.5625,"(0.0, 0.0, 0.0, 0.0, 0.0, 0.0, 0.0, 0.0, 0.0)",0.4443359375,0.65869140625,0.84326171875,"(0.0, 0.0, 0.0, 0.0, 0.0, 0.0, 0.0, 0.0, 0.0)"
2022/11/28/22:58:32.952584,2478,1669697912,951642274,RU_myo,0.5109205251561707,0.03137177755707463,-0.39837274730549826,-0.7611012959858379,"(0.0, 0.0, 0.0, 0.0, 0.0, 0.0, 0.0, 0.0, 0.0)",-23.3125,77.0625,-2.75,"(0.0, 0.0, 0.0, 0.0, 0.0, 0.0, 0.0, 0.0, 0.0)",0.392578125,0.61376953125,0.837890625,"(0.0, 0.0, 0.0, 0.0, 0.0, 0.0, 0.0, 0.0, 0.0)"
2022/11/28/22:58:32.968670,2479,1669697912,968375921,RU_myo,0.5173376364941953,0.03753688608352172,-0.38775908502213574,-0.7619682697019271,"(0.0, 0.0, 0.0, 0.0, 0.0, 0.0, 0.0, 0.0, 0.0)",-22.25,73.125,3.875,"(0.0, 0.0, 0.0, 0.0, 0.0, 0.0, 0.0, 0.0, 0.0)",0.39501953125,0.4970703125,0.7626953125,"(0.0, 0.0, 0.0, 0.0, 0.0, 0.0, 0.0, 0.0, 0.0)"
2022/11/28/22:58:32.991930,2480,1669697912,991480112,RU_myo,0.5257515536814288,0.04229693832148016,-0.37554554327859657,-0.7620773043030322,"(0.0, 0.0, 0.0, 0.0, 0.0, 0.0, 0.0, 0.0, 0.0)",-29.0625,78.9375,14.4375,"(0.0, 0.0, 0.0, 0.0, 0.0, 0.0, 0.0, 0.0, 0.0)",0.3896484375,0.3603515625,0.70556640625,"(0.0, 0.0, 0.0, 0.0, 0.0, 0.0, 0.0, 0.0, 0.0)"
2022/11/28/22:58:33.012368,2481,1669697913,11831521,RU_myo,0.5357205993385356,0.049012605818485135,-0.3664043246928596,-0.759176576799898,"(0.0, 0.0, 0.0, 0.0, 0.0, 0.0, 0.0, 0.0, 0.0)",-4.0625,83.9375,26.125,"(0.0, 0.0, 0.0, 0.0, 0.0, 0.0, 0.0, 0.0, 0.0)",0.380859375,0.3125,0.64990234375,"(0.0, 0.0, 0.0, 0.0, 0.0, 0.0, 0.0, 0.0, 0.0)"
2022/11/28/22:58:33.028965,2482,1669697913,28609037,RU_myo,0.5462514733429492,0.059324741015569456,-0.36223491556317355,-0.752911527950684,"(0.0, 0.0, 0.0, 0.0, 0.0, 0.0, 0.0, 0.0, 0.0)",31.8125,88.75,32.8125,"(0.0, 0.0, 0.0, 0.0, 0.0, 0.0, 0.0, 0.0, 0.0)",0.3740234375,0.3095703125,0.56640625,"(0.0, 0.0, 0.0, 0.0, 0.0, 0.0, 0.0, 0.0, 0.0)"
2022/11/28/22:58:33.052534,2483,1669697913,51210165,RU_myo,0.5572357575663615,0.07220261787524705,-0.36321029499205004,-0.743204799549352,"(0.0, 0.0, 0.0, 0.0, 0.0, 0.0, 0.0, 0.0, 0.0)",63.5625,88.75,41.75,"(0.0, 0.0, 0.0, 0.0, 0.0, 0.0, 0.0, 0.0, 0.0)",0.42138671875,0.41845703125,0.552734375,"(0.0, 0.0, 0.0, 0.0, 0.0, 0.0, 0.0, 0.0, 0.0)"
2022/11/28/22:58:33.072079,2484,1669697913,71645498,RU_myo,0.5670740834786738,0.08746283087126677,-0.3690772772355549,-0.7311355554828365,"(0.0, 0.0, 0.0, 0.0, 0.0, 0.0, 0.0, 0.0, 0.0)",85.875,78.4375,48.3125,"(0.0, 0.0, 0.0, 0.0, 0.0, 0.0, 0.0, 0.0, 0.0)",0.337890625,0.607421875,0.482421875,"(0.0, 0.0, 0.0, 0.0, 0.0, 0.0, 0.0, 0.0, 0.0)"
2022/11/28/22:58:33.088866,2485,1669697913,88471651,RU_myo,0.5754346620622436,0.10137855045453825,-0.37566825890890004,-0.7193543622258807,"(0.0, 0.0, 0.0, 0.0, 0.0, 0.0, 0.0, 0.0, 0.0)",77.5,65.875,48.75,"(0.0, 0.0, 0.0, 0.0, 0.0, 0.0, 0.0, 0.0, 0.0)",0.27685546875,0.70751953125,0.40478515625,"(0.0, 0.0, 0.0, 0.0, 0.0, 0.0, 0.0, 0.0, 0.0)"
2022/11/28/22:58:33.110774,2486,1669697913,110406160,RU_myo,0.5823394390626758,0.11071834634311853,-0.37988477819160404,-0.7101477175866505,"(0.0, 0.0, 0.0, 0.0, 0.0, 0.0, 0.0, 0.0, 0.0)",41.25,51.8125,44.0,"(0.0, 0.0, 0.0, 0.0, 0.0, 0.0, 0.0, 0.0, 0.0)",0.2998046875,0.82373046875,0.36083984375,"(0.0, 0.0, 0.0, 0.0, 0.0, 0.0, 0.0, 0.0, 0.0)"
2022/11/28/22:58:33.132646,2487,1669697913,132202386,RU_myo,0.5880699722811062,0.11346363035501572,-0.3804907324546358,-0.7046463757120262,"(0.0, 0.0, 0.0, 0.0, 0.0, 0.0, 0.0, 0.0, 0.0)",-4.9375,34.25,37.3125,"(0.0, 0.0, 0.0, 0.0, 0.0, 0.0, 0.0, 0.0, 0.0)",0.33154296875,0.837890625,0.32958984375,"(0.0, 0.0, 0.0, 0.0, 0.0, 0.0, 0.0, 0.0, 0.0)"
2022/11/28/22:58:33.148918,2488,1669697913,148586034,RU_myo,0.5931848274885019,0.11022654578086577,-0.37712614971205405,-0.7026789709718204,"(0.0, 0.0, 0.0, 0.0, 0.0, 0.0, 0.0, 0.0, 0.0)",-42.375,19.75,31.5,"(0.0, 0.0, 0.0, 0.0, 0.0, 0.0, 0.0, 0.0, 0.0)",0.3623046875,0.771484375,0.404296875,"(0.0, 0.0, 0.0, 0.0, 0.0, 0.0, 0.0, 0.0, 0.0)"
2022/11/28/22:58:33.171171,2489,1669697913,170776367,RU_myo,0.5972653600182155,0.10570852274183008,-0.3743741792715853,-0.7013870342662306,"(0.0, 0.0, 0.0, 0.0, 0.0, 0.0, 0.0, 0.0, 0.0)",-35.3125,7.375,26.4375,"(0.0, 0.0, 0.0, 0.0, 0.0, 0.0, 0.0, 0.0, 0.0)",0.35693359375,0.67333984375,0.5224609375,"(0.0, 0.0, 0.0, 0.0, 0.0, 0.0, 0.0, 0.0, 0.0)"
2022/11/28/22:58:33.192003,2490,1669697913,191627979,RU_myo,0.6001010274696772,0.10290585153721275,-0.37512417766768064,-0.6989785360641522,"(0.0, 0.0, 0.0, 0.0, 0.0, 0.0, 0.0, 0.0, 0.0)",-8.0625,-1.0,23.25,"(0.0, 0.0, 0.0, 0.0, 0.0, 0.0, 0.0, 0.0, 0.0)",0.36767578125,0.6416015625,0.58349609375,"(0.0, 0.0, 0.0, 0.0, 0.0, 0.0, 0.0, 0.0, 0.0)"
2022/11/28/22:58:33.208414,2491,1669697913,208059549,RU_myo,0.601542840715097,0.10277984413192202,-0.37956523198124886,-0.6953508100920354,"(0.0, 0.0, 0.0, 0.0, 0.0, 0.0, 0.0, 0.0, 0.0)",19.9375,-6.4375,19.25,"(0.0, 0.0, 0.0, 0.0, 0.0, 0.0, 0.0, 0.0, 0.0)",0.37060546875,0.68701171875,0.63232421875,"(0.0, 0.0, 0.0, 0.0, 0.0, 0.0, 0.0, 0.0, 0.0)"
2022/11/28/22:58:33.231708,2492,1669697913,231059789,RU_myo,0.6024787231106759,0.10418713203828625,-0.3851933159306529,-0.6912239427847638,"(0.0, 0.0, 0.0, 0.0, 0.0, 0.0, 0.0, 0.0, 0.0)",32.75,-6.875,16.9375,"(0.0, 0.0, 0.0, 0.0, 0.0, 0.0, 0.0, 0.0, 0.0)",0.375,0.7236328125,0.69091796875,"(0.0, 0.0, 0.0, 0.0, 0.0, 0.0, 0.0, 0.0, 0.0)"
2022/11/28/22:58:33.252713,2493,1669697913,251769781,RU_myo,0.6036737371570251,0.10564748144968258,-0.38993746908262394,-0.6872884394020079,"(0.0, 0.0, 0.0, 0.0, 0.0, 0.0, 0.0, 0.0, 0.0)",31.1875,-4.0,16.875,"(0.0, 0.0, 0.0, 0.0, 0.0, 0.0, 0.0, 0.0, 0.0)",0.3857421875,0.736328125,0.73291015625,"(0.0, 0.0, 0.0, 0.0, 0.0, 0.0, 0.0, 0.0, 0.0)"
2022/11/28/22:58:33.268077,2494,1669697913,267674684,RU_myo,0.6049076132033637,0.10699253818439074,-0.39373009916001406,-0.6838245281334363,"(0.0, 0.0, 0.0, 0.0, 0.0, 0.0, 0.0, 0.0, 0.0)",24.875,-2.0,16.0,"(0.0, 0.0, 0.0, 0.0, 0.0, 0.0, 0.0, 0.0, 0.0)",0.3837890625,0.76416015625,0.7275390625,"(0.0, 0.0, 0.0, 0.0, 0.0, 0.0, 0.0, 0.0, 0.0)"
2022/11/28/22:58:33.291445,2495,1669697913,291062593,RU_myo,0.6056381640074572,0.10790771681600164,-0.3957430066939789,-0.6818693508305262,"(0.0, 0.0, 0.0, 0.0, 0.0, 0.0, 0.0, 0.0, 0.0)",11.1875,0.3125,9.5625,"(0.0, 0.0, 0.0, 0.0, 0.0, 0.0, 0.0, 0.0, 0.0)",0.3837890625,0.81982421875,0.7294921875,"(0.0, 0.0, 0.0, 0.0, 0.0, 0.0, 0.0, 0.0, 0.0)"
2022/11/28/22:58:33.312400,2496,1669697913,311911582,RU_myo,0.6058086278872779,0.10741720583131262,-0.3954295889665196,-0.6819771920222086,"(0.0, 0.0, 0.0, 0.0, 0.0, 0.0, 0.0, 0.0, 0.0)",-8.625,-0.875,4.0625,"(0.0, 0.0, 0.0, 0.0, 0.0, 0.0, 0.0, 0.0, 0.0)",0.35791015625,0.84130859375,0.72216796875,"(0.0, 0.0, 0.0, 0.0, 0.0, 0.0, 0.0, 0.0, 0.0)"
2022/11/28/22:58:33.328404,2497,1669697913,327955722,RU_myo,0.6061241560162484,0.10528286870688032,-0.3927508754369709,-0.6835757272562664,"(0.0, 0.0, 0.0, 0.0, 0.0, 0.0, 0.0, 0.0, 0.0)",-21.4375,0.25,-0.875,"(0.0, 0.0, 0.0, 0.0, 0.0, 0.0, 0.0, 0.0, 0.0)",0.357421875,0.7275390625,0.7392578125,"(0.0, 0.0, 0.0, 0.0, 0.0, 0.0, 0.0, 0.0, 0.0)"
2022/11/28/22:58:33.351912,2498,1669697913,351466655,RU_myo,0.6066379570921859,0.10241860267639481,-0.38892213125982583,-0.6857407634501166,"(0.0, 0.0, 0.0, 0.0, 0.0, 0.0, 0.0, 0.0, 0.0)",-26.1875,1.0625,-2.5,"(0.0, 0.0, 0.0, 0.0, 0.0, 0.0, 0.0, 0.0, 0.0)",0.3486328125,0.64501953125,0.74951171875,"(0.0, 0.0, 0.0, 0.0, 0.0, 0.0, 0.0, 0.0, 0.0)"
2022/11/28/22:58:33.373854,2499,1669697913,373436212,RU_myo,0.6067974373163941,0.10125497369823958,-0.38664873922745496,-0.6870568046540585,"(0.0, 0.0, 0.0, 0.0, 0.0, 0.0, 0.0, 0.0, 0.0)",-11.375,2.125,-4.1875,"(0.0, 0.0, 0.0, 0.0, 0.0, 0.0, 0.0, 0.0, 0.0)",0.3388671875,0.61474609375,0.73974609375,"(0.0, 0.0, 0.0, 0.0, 0.0, 0.0, 0.0, 0.0, 0.0)"
2022/11/28/22:58:33.387844,2500,1669697913,387461900,RU_myo,0.6067958132315066,0.10192607202742064,-0.38658667079142656,-0.6869939321800279,"(0.0, 0.0, 0.0, 0.0, 0.0, 0.0, 0.0, 0.0, 0.0)",5.1875,2.375,-2.25,"(0.0, 0.0, 0.0, 0.0, 0.0, 0.0, 0.0, 0.0, 0.0)",0.34130859375,0.62841796875,0.71728515625,"(0.0, 0.0, 0.0, 0.0, 0.0, 0.0, 0.0, 0.0, 0.0)"
2022/11/28/22:58:33.411644,2501,1669697913,411254882,RU_myo,0.6068525890106491,0.10332911929951011,-0.38786565454718647,-0.6860125817640246,"(0.0, 0.0, 0.0, 0.0, 0.0, 0.0, 0.0, 0.0, 0.0)",14.1875,1.6875,0.1875,"(0.0, 0.0, 0.0, 0.0, 0.0, 0.0, 0.0, 0.0, 0.0)",0.34521484375,0.65625,0.71826171875,"(0.0, 0.0, 0.0, 0.0, 0.0, 0.0, 0.0, 0.0, 0.0)"
2022/11/28/22:58:33.434074,2502,1669697913,433596134,RU_myo,0.6068852125553308,0.10492162127955483,-0.3890461978102865,-0.6850728779765697,"(0.0, 0.0, 0.0, 0.0, 0.0, 0.0, 0.0, 0.0, 0.0)",14.0625,3.0,-0.4375,"(0.0, 0.0, 0.0, 0.0, 0.0, 0.0, 0.0, 0.0, 0.0)",0.34619140625,0.65283203125,0.7109375,"(0.0, 0.0, 0.0, 0.0, 0.0, 0.0, 0.0, 0.0, 0.0)"
2022/11/28/22:58:33.448845,2503,1669697913,448470354,RU_myo,0.6069843213463741,0.1058331637219319,-0.38976388900130166,-0.6844366193643278,"(0.0, 0.0, 0.0, 0.0, 0.0, 0.0, 0.0, 0.0, 0.0)",7.4375,2.75,-0.125,"(0.0, 0.0, 0.0, 0.0, 0.0, 0.0, 0.0, 0.0, 0.0)",0.35888671875,0.67333984375,0.6875,"(0.0, 0.0, 0.0, 0.0, 0.0, 0.0, 0.0, 0.0, 0.0)"
2022/11/28/22:58:33.471385,2504,1669697913,471013545,RU_myo,0.6070985273880388,0.10558765983525757,-0.38945367480276216,-0.6845498223770226,"(0.0, 0.0, 0.0, 0.0, 0.0, 0.0, 0.0, 0.0, 0.0)",-3.125,0.6875,0.25,"(0.0, 0.0, 0.0, 0.0, 0.0, 0.0, 0.0, 0.0, 0.0)",0.333984375,0.67431640625,0.673828125,"(0.0, 0.0, 0.0, 0.0, 0.0, 0.0, 0.0, 0.0, 0.0)"
2022/11/28/22:58:33.501510,2505,1669697913,501082658,RU_myo,0.6072816861924891,0.1045501033615813,-0.3880499458102358,-0.6853433220357247,"(0.0, 0.0, 0.0, 0.0, 0.0, 0.0, 0.0, 0.0, 0.0)",-10.5,0.25,-0.6875,"(0.0, 0.0, 0.0, 0.0, 0.0, 0.0, 0.0, 0.0, 0.0)",0.3310546875,0.66357421875,0.69482421875,"(0.0, 0.0, 0.0, 0.0, 0.0, 0.0, 0.0, 0.0, 0.0)"
2022/11/28/22:58:33.507627,2506,1669697913,507384538,RU_myo,0.607596302376734,0.10357518082705351,-0.38628598671445,-0.6862084608359238,"(0.0, 0.0, 0.0, 0.0, 0.0, 0.0, 0.0, 0.0, 0.0)",-10.1875,2.125,-1.625,"(0.0, 0.0, 0.0, 0.0, 0.0, 0.0, 0.0, 0.0, 0.0)",0.33984375,0.642578125,0.71240234375,"(0.0, 0.0, 0.0, 0.0, 0.0, 0.0, 0.0, 0.0, 0.0)"
2022/11/28/22:58:33.531267,2507,1669697913,530918359,RU_myo,0.6079589229812581,0.10265906118406547,-0.3848799285533394,-0.6868147535697318,"(0.0, 0.0, 0.0, 0.0, 0.0, 0.0, 0.0, 0.0, 0.0)",-7.875,2.25,-1.125,"(0.0, 0.0, 0.0, 0.0, 0.0, 0.0, 0.0, 0.0, 0.0)",0.35009765625,0.63232421875,0.71142578125,"(0.0, 0.0, 0.0, 0.0, 0.0, 0.0, 0.0, 0.0, 0.0)"
2022/11/28/22:58:33.553660,2508,1669697913,553360700,RU_myo,0.6081448338880843,0.10204919332204707,-0.38408826170791993,-0.6871841313474449,"(0.0, 0.0, 0.0, 0.0, 0.0, 0.0, 0.0, 0.0, 0.0)",-5.0625,0.4375,-0.25,"(0.0, 0.0, 0.0, 0.0, 0.0, 0.0, 0.0, 0.0, 0.0)",0.33544921875,0.6513671875,0.71142578125,"(0.0, 0.0, 0.0, 0.0, 0.0, 0.0, 0.0, 0.0, 0.0)"
2022/11/28/22:58:33.568196,2509,1669697913,567919731,RU_myo,0.6081614402841138,0.10174680057744055,-0.3836714987581232,-0.687447039534321,"(0.0, 0.0, 0.0, 0.0, 0.0, 0.0, 0.0, 0.0, 0.0)",-3.125,-0.375,0.1875,"(0.0, 0.0, 0.0, 0.0, 0.0, 0.0, 0.0, 0.0, 0.0)",0.3193359375,0.6552734375,0.69189453125,"(0.0, 0.0, 0.0, 0.0, 0.0, 0.0, 0.0, 0.0, 0.0)"
2022/11/28/22:58:33.591359,2510,1669697913,591051340,RU_myo,0.6083967319954219,0.10070772550084732,-0.38293349684382794,-0.6878032476782111,"(0.0, 0.0, 0.0, 0.0, 0.0, 0.0, 0.0, 0.0, 0.0)",-5.25,-1.0,0.0625,"(0.0, 0.0, 0.0, 0.0, 0.0, 0.0, 0.0, 0.0, 0.0)",0.3427734375,0.62060546875,0.70458984375,"(0.0, 0.0, 0.0, 0.0, 0.0, 0.0, 0.0, 0.0, 0.0)"
2022/11/28/22:58:33.614507,2511,1669697913,613865613,RU_myo,0.6087751736864638,0.10009938689049536,-0.3831242997022191,-0.6874508503339325,"(0.0, 0.0, 0.0, 0.0, 0.0, 0.0, 0.0, 0.0, 0.0)",3.3125,-1.8125,2.125,"(0.0, 0.0, 0.0, 0.0, 0.0, 0.0, 0.0, 0.0, 0.0)",0.35009765625,0.60302734375,0.72998046875,"(0.0, 0.0, 0.0, 0.0, 0.0, 0.0, 0.0, 0.0, 0.0)"
2022/11/28/22:58:33.634832,2512,1669697913,634301424,RU_myo,0.6091238862760797,0.10174444072366982,-0.3855546682971939,-0.6855390271195317,"(0.0, 0.0, 0.0, 0.0, 0.0, 0.0, 0.0, 0.0, 0.0)",22.8125,-1.5625,5.125,"(0.0, 0.0, 0.0, 0.0, 0.0, 0.0, 0.0, 0.0, 0.0)",0.33251953125,0.63330078125,0.74072265625,"(0.0, 0.0, 0.0, 0.0, 0.0, 0.0, 0.0, 0.0, 0.0)"
2022/11/28/22:58:33.651429,2513,1669697913,651017904,RU_myo,0.6092477799304936,0.10406406178937004,-0.38830238187916255,-0.683526937231176,"(0.0, 0.0, 0.0, 0.0, 0.0, 0.0, 0.0, 0.0, 0.0)",24.75,0.125,4.1875,"(0.0, 0.0, 0.0, 0.0, 0.0, 0.0, 0.0, 0.0, 0.0)",0.3349609375,0.677734375,0.72314453125,"(0.0, 0.0, 0.0, 0.0, 0.0, 0.0, 0.0, 0.0, 0.0)"
2022/11/28/22:58:33.673654,2514,1669697913,673303842,RU_myo,0.6095103648383404,0.10510483158938737,-0.38971797311163664,-0.6823268945050879,"(0.0, 0.0, 0.0, 0.0, 0.0, 0.0, 0.0, 0.0, 0.0)",10.9375,0.8125,3.6875,"(0.0, 0.0, 0.0, 0.0, 0.0, 0.0, 0.0, 0.0, 0.0)",0.35400390625,0.705078125,0.70654296875,"(0.0, 0.0, 0.0, 0.0, 0.0, 0.0, 0.0, 0.0, 0.0)"
2022/11/28/22:58:33.694907,2515,1669697913,694407463,RU_myo,0.609924409564222,0.10498048478439527,-0.3897705673448536,-0.681945904939563,"(0.0, 0.0, 0.0, 0.0, 0.0, 0.0, 0.0, 0.0, 0.0)",0.1875,1.0625,2.625,"(0.0, 0.0, 0.0, 0.0, 0.0, 0.0, 0.0, 0.0, 0.0)",0.35986328125,0.69091796875,0.70556640625,"(0.0, 0.0, 0.0, 0.0, 0.0, 0.0, 0.0, 0.0, 0.0)"
2022/11/28/22:58:33.711173,2516,1669697913,710855484,RU_myo,0.6102836307699471,0.10442997222196014,-0.38915575855477375,-0.682060163401756,"(0.0, 0.0, 0.0, 0.0, 0.0, 0.0, 0.0, 0.0, 0.0)",-5.25,1.375,1.1875,"(0.0, 0.0, 0.0, 0.0, 0.0, 0.0, 0.0, 0.0, 0.0)",0.36279296875,0.6923828125,0.69775390625,"(0.0, 0.0, 0.0, 0.0, 0.0, 0.0, 0.0, 0.0, 0.0)"
2022/11/28/22:58:33.733898,2517,1669697913,733423709,RU_myo,0.6099738377769809,0.1040629771272516,-0.389213844657175,-0.6823601667347055,"(0.0, 0.0, 0.0, 0.0, 0.0, 0.0, 0.0, 0.0, 0.0)",-4.25,0.5625,-2.6875,"(0.0, 0.0, 0.0, 0.0, 0.0, 0.0, 0.0, 0.0, 0.0)",0.388671875,0.70751953125,0.66845703125,"(0.0, 0.0, 0.0, 0.0, 0.0, 0.0, 0.0, 0.0, 0.0)"
2022/11/28/22:58:33.748251,2518,1669697913,747926712,RU_myo,0.6086399026456975,0.10412551884411951,-0.3906232828853253,-0.6827362566180075,"(0.0, 0.0, 0.0, 0.0, 0.0, 0.0, 0.0, 0.0, 0.0)",-1.75,-2.5,-7.8125,"(0.0, 0.0, 0.0, 0.0, 0.0, 0.0, 0.0, 0.0, 0.0)",0.41552734375,0.744140625,0.60595703125,"(0.0, 0.0, 0.0, 0.0, 0.0, 0.0, 0.0, 0.0, 0.0)"
2022/11/28/22:58:33.771271,2519,1669697913,770848512,RU_myo,0.606070177723684,0.10381927213574887,-0.3925723447249482,-0.6839498903898894,"(0.0, 0.0, 0.0, 0.0, 0.0, 0.0, 0.0, 0.0, 0.0)",-3.625,-8.4375,-13.875,"(0.0, 0.0, 0.0, 0.0, 0.0, 0.0, 0.0, 0.0, 0.0)",0.396484375,0.73046875,0.541015625,"(0.0, 0.0, 0.0, 0.0, 0.0, 0.0, 0.0, 0.0, 0.0)"
2022/11/28/22:58:33.793884,2520,1669697913,793468952,RU_myo,0.6012518623992534,0.10253813103550358,-0.39709111935534896,-0.685784785901737,"(0.0, 0.0, 0.0, 0.0, 0.0, 0.0, 0.0, 0.0, 0.0)",-2.125,-22.4375,-22.625,"(0.0, 0.0, 0.0, 0.0, 0.0, 0.0, 0.0, 0.0, 0.0)",0.43359375,0.7373046875,0.43115234375,"(0.0, 0.0, 0.0, 0.0, 0.0, 0.0, 0.0, 0.0, 0.0)"
2022/11/28/22:58:33.815909,2521,1669697913,815194129,RU_myo,0.5936230059856864,0.09954751416436916,-0.4050259374584634,-0.688226713499342,"(0.0, 0.0, 0.0, 0.0, 0.0, 0.0, 0.0, 0.0, 0.0)",1.1875,-47.5,-28.4375,"(0.0, 0.0, 0.0, 0.0, 0.0, 0.0, 0.0, 0.0, 0.0)",0.3837890625,0.71240234375,0.294921875,"(0.0, 0.0, 0.0, 0.0, 0.0, 0.0, 0.0, 0.0, 0.0)"
2022/11/28/22:58:33.831348,2522,1669697913,830982446,RU_myo,0.5829917532460945,0.09374741760741219,-0.41691966775796396,-0.691021004004636,"(0.0, 0.0, 0.0, 0.0, 0.0, 0.0, 0.0, 0.0, 0.0)",3.6875,-79.0625,-29.8125,"(0.0, 0.0, 0.0, 0.0, 0.0, 0.0, 0.0, 0.0, 0.0)",0.34521484375,0.72216796875,0.18798828125,"(0.0, 0.0, 0.0, 0.0, 0.0, 0.0, 0.0, 0.0, 0.0)"
2022/11/28/22:58:33.853904,2523,1669697913,853612661,RU_myo,0.5701714335260127,0.08404261014400766,-0.42814735668860837,-0.6960827659349363,"(0.0, 0.0, 0.0, 0.0, 0.0, 0.0, 0.0, 0.0, 0.0)",0.75,-106.5625,-37.875,"(0.0, 0.0, 0.0, 0.0, 0.0, 0.0, 0.0, 0.0, 0.0)",0.36083984375,0.779296875,0.189453125,"(0.0, 0.0, 0.0, 0.0, 0.0, 0.0, 0.0, 0.0, 0.0)"
2022/11/28/22:58:33.874511,2524,1669697913,874140262,RU_myo,0.5542680320975454,0.07135109894527372,-0.44043586825414466,-0.7026465791770667,"(0.0, 0.0, 0.0, 0.0, 0.0, 0.0, 0.0, 0.0, 0.0)",-6.5,-130.625,-46.9375,"(0.0, 0.0, 0.0, 0.0, 0.0, 0.0, 0.0, 0.0, 0.0)",0.3681640625,0.828125,0.25537109375,"(0.0, 0.0, 0.0, 0.0, 0.0, 0.0, 0.0, 0.0, 0.0)"
2022/11/28/22:58:33.891353,2525,1669697913,890793323,RU_myo,0.5358275029791958,0.05639647029875577,-0.45397937887678075,-0.7096555845926767,"(0.0, 0.0, 0.0, 0.0, 0.0, 0.0, 0.0, 0.0, 0.0)",-6.6875,-150.4375,-53.4375,"(0.0, 0.0, 0.0, 0.0, 0.0, 0.0, 0.0, 0.0, 0.0)",0.45751953125,0.77490234375,0.35595703125,"(0.0, 0.0, 0.0, 0.0, 0.0, 0.0, 0.0, 0.0, 0.0)"
2022/11/28/22:58:33.914250,2526,1669697913,913465261,RU_myo,0.5158515939086832,0.038145675129309865,-0.4678185597858562,-0.7166504277893703,"(0.0, 0.0, 0.0, 0.0, 0.0, 0.0, 0.0, 0.0, 0.0)",-13.375,-168.6875,-52.6875,"(0.0, 0.0, 0.0, 0.0, 0.0, 0.0, 0.0, 0.0, 0.0)",0.57958984375,0.71484375,0.39208984375,"(0.0, 0.0, 0.0, 0.0, 0.0, 0.0, 0.0, 0.0, 0.0)"
2022/11/28/22:58:33.934610,2527,1669697913,934201240,RU_myo,0.49497828693126816,0.017028229599731666,-0.4810017113816676,-0.723425109124084,"(0.0, 0.0, 0.0, 0.0, 0.0, 0.0, 0.0, 0.0, 0.0)",-23.125,-180.5,-48.625,"(0.0, 0.0, 0.0, 0.0, 0.0, 0.0, 0.0, 0.0, 0.0)",0.6279296875,0.703125,0.41650390625,"(0.0, 0.0, 0.0, 0.0, 0.0, 0.0, 0.0, 0.0, 0.0)"
2022/11/28/22:58:33.951438,2528,1669697913,951146841,RU_myo,0.4749528770355662,-0.005614965906871253,-0.49393390309031576,-0.7282976974640724,"(0.0, 0.0, 0.0, 0.0, 0.0, 0.0, 0.0, 0.0, 0.0)",-22.875,-184.4375,-35.3125,"(0.0, 0.0, 0.0, 0.0, 0.0, 0.0, 0.0, 0.0, 0.0)",0.626953125,0.669921875,0.4384765625,"(0.0, 0.0, 0.0, 0.0, 0.0, 0.0, 0.0, 0.0, 0.0)"
2022/11/28/22:58:33.973612,2529,1669697913,973188877,RU_myo,0.4552458063123068,-0.02929588242792697,-0.5049267402629997,-0.7327632592285234,"(0.0, 0.0, 0.0, 0.0, 0.0, 0.0, 0.0, 0.0, 0.0)",-31.0,-183.375,-30.0625,"(0.0, 0.0, 0.0, 0.0, 0.0, 0.0, 0.0, 0.0, 0.0)",0.6455078125,0.6572265625,0.494140625,"(0.0, 0.0, 0.0, 0.0, 0.0, 0.0, 0.0, 0.0, 0.0)"
2022/11/28/22:58:33.994596,2530,1669697913,994198083,RU_myo,0.4358508525137343,-0.055236664546272164,-0.5127549379593729,-0.7376078354051924,"(0.0, 0.0, 0.0, 0.0, 0.0, 0.0, 0.0, 0.0, 0.0)",-51.4375,-183.75,-22.625,"(0.0, 0.0, 0.0, 0.0, 0.0, 0.0, 0.0, 0.0, 0.0)",0.65576171875,0.625,0.4873046875,"(0.0, 0.0, 0.0, 0.0, 0.0, 0.0, 0.0, 0.0, 0.0)"
2022/11/28/22:58:34.011835,2531,1669697914,11070728,RU_myo,0.4166034255156816,-0.08477324319385902,-0.5163905044371787,-0.7433679640757401,"(0.0, 0.0, 0.0, 0.0, 0.0, 0.0, 0.0, 0.0, 0.0)",-79.875,-187.875,-13.4375,"(0.0, 0.0, 0.0, 0.0, 0.0, 0.0, 0.0, 0.0, 0.0)",0.70751953125,0.55859375,0.47802734375,"(0.0, 0.0, 0.0, 0.0, 0.0, 0.0, 0.0, 0.0, 0.0)"
2022/11/28/22:58:34.034138,2532,1669697914,33730983,RU_myo,0.397143909810523,-0.11693986955539605,-0.5167692460989239,-0.7493672851780546,"(0.0, 0.0, 0.0, 0.0, 0.0, 0.0, 0.0, 0.0, 0.0)",-99.875,-192.375,-6.375,"(0.0, 0.0, 0.0, 0.0, 0.0, 0.0, 0.0, 0.0, 0.0)",0.7861328125,0.5029296875,0.52978515625,"(0.0, 0.0, 0.0, 0.0, 0.0, 0.0, 0.0, 0.0, 0.0)"
2022/11/28/22:58:34.055001,2533,1669697914,54501771,RU_myo,0.3773697918036522,-0.14770093743568466,-0.5161598462370187,-0.7545564832716404,"(0.0, 0.0, 0.0, 0.0, 0.0, 0.0, 0.0, 0.0, 0.0)",-97.5625,-186.75,-8.875,"(0.0, 0.0, 0.0, 0.0, 0.0, 0.0, 0.0, 0.0, 0.0)",0.71484375,0.42236328125,0.5751953125,"(0.0, 0.0, 0.0, 0.0, 0.0, 0.0, 0.0, 0.0, 0.0)"
2022/11/28/22:58:34.071087,2534,1669697914,70784330,RU_myo,0.359001612725109,-0.17724255072317519,-0.5164691681196655,-0.756942876745461,"(0.0, 0.0, 0.0, 0.0, 0.0, 0.0, 0.0, 0.0, 0.0)",-80.875,-182.8125,-1.0,"(0.0, 0.0, 0.0, 0.0, 0.0, 0.0, 0.0, 0.0, 0.0)",0.69873046875,0.3857421875,0.62109375,"(0.0, 0.0, 0.0, 0.0, 0.0, 0.0, 0.0, 0.0, 0.0)"
2022/11/28/22:58:34.093894,2535,1669697914,93485355,RU_myo,0.3444644430079933,-0.20445710206888332,-0.5182224637811607,-0.7556368300641327,"(0.0, 0.0, 0.0, 0.0, 0.0, 0.0, 0.0, 0.0, 0.0)",-53.8125,-169.0,13.3125,"(0.0, 0.0, 0.0, 0.0, 0.0, 0.0, 0.0, 0.0, 0.0)",0.86181640625,0.37890625,0.712890625,"(0.0, 0.0, 0.0, 0.0, 0.0, 0.0, 0.0, 0.0, 0.0)"
2022/11/28/22:58:34.114976,2536,1669697914,114392042,RU_myo,0.3338556676988985,-0.22539835115393642,-0.5234270943666826,-0.7508395656365355,"(0.0, 0.0, 0.0, 0.0, 0.0, 0.0, 0.0, 0.0, 0.0)",-11.8125,-141.5625,16.8125,"(0.0, 0.0, 0.0, 0.0, 0.0, 0.0, 0.0, 0.0, 0.0)",0.72314453125,0.4140625,0.6845703125,"(0.0, 0.0, 0.0, 0.0, 0.0, 0.0, 0.0, 0.0, 0.0)"
2022/11/28/22:58:34.131597,2537,1669697914,131192922,RU_myo,0.32628320168801006,-0.24065369701755024,-0.5334297012258151,-0.7423461620148272,"(0.0, 0.0, 0.0, 0.0, 0.0, 0.0, 0.0, 0.0, 0.0)",33.3125,-123.0,16.9375,"(0.0, 0.0, 0.0, 0.0, 0.0, 0.0, 0.0, 0.0, 0.0)",0.66259765625,0.63134765625,0.66845703125,"(0.0, 0.0, 0.0, 0.0, 0.0, 0.0, 0.0, 0.0, 0.0)"
2022/11/28/22:58:34.153725,2538,1669697914,153425693,RU_myo,0.3216541554674301,-0.2529898433420299,-0.5440654918096152,-0.7324803642817131,"(0.0, 0.0, 0.0, 0.0, 0.0, 0.0, 0.0, 0.0, 0.0)",49.9375,-105.0,22.1875,"(0.0, 0.0, 0.0, 0.0, 0.0, 0.0, 0.0, 0.0, 0.0)",0.6728515625,0.62255859375,0.64111328125,"(0.0, 0.0, 0.0, 0.0, 0.0, 0.0, 0.0, 0.0, 0.0)"
2022/11/28/22:58:34.176692,2539,1669697914,176320314,RU_myo,0.32120673595653315,-0.2651801762742042,-0.5498292768824639,-0.7240120670059572,"(0.0, 0.0, 0.0, 0.0, 0.0, 0.0, 0.0, 0.0, 0.0)",45.5625,-91.875,32.625,"(0.0, 0.0, 0.0, 0.0, 0.0, 0.0, 0.0, 0.0, 0.0)",0.7333984375,0.41357421875,0.57373046875,"(0.0, 0.0, 0.0, 0.0, 0.0, 0.0, 0.0, 0.0, 0.0)"
2022/11/28/22:58:34.191715,2540,1669697914,191066026,RU_myo,0.3264692678482217,-0.2781305764786589,-0.5565052877622145,-0.7115919225728954,"(0.0, 0.0, 0.0, 0.0, 0.0, 0.0, 0.0, 0.0, 0.0)",69.0625,-80.4375,50.8125,"(0.0, 0.0, 0.0, 0.0, 0.0, 0.0, 0.0, 0.0, 0.0)",0.80126953125,0.1806640625,0.474609375,"(0.0, 0.0, 0.0, 0.0, 0.0, 0.0, 0.0, 0.0, 0.0)"
2022/11/28/22:58:34.214269,2541,1669697914,213757276,RU_myo,0.33538160060230326,-0.2879582150394298,-0.5707285436273226,-0.6920030186767815,"(0.0, 0.0, 0.0, 0.0, 0.0, 0.0, 0.0, 0.0, 0.0)",120.3125,-72.5,74.125,"(0.0, 0.0, 0.0, 0.0, 0.0, 0.0, 0.0, 0.0, 0.0)",0.78955078125,0.0576171875,0.41259765625,"(0.0, 0.0, 0.0, 0.0, 0.0, 0.0, 0.0, 0.0, 0.0)"
2022/11/28/22:58:34.234932,2542,1669697914,234213829,RU_myo,0.3508216283845799,-0.2963185465913597,-0.5891581730682586,-0.664839943979337,"(0.0, 0.0, 0.0, 0.0, 0.0, 0.0, 0.0, 0.0, 0.0)",174.8125,-65.3125,102.75,"(0.0, 0.0, 0.0, 0.0, 0.0, 0.0, 0.0, 0.0, 0.0)",0.7734375,0.00390625,0.32275390625,"(0.0, 0.0, 0.0, 0.0, 0.0, 0.0, 0.0, 0.0, 0.0)"
2022/11/28/22:58:34.257079,2543,1669697914,256683588,RU_myo,0.3712033880942476,-0.30425006406606775,-0.6080118632349383,-0.6324251080948032,"(0.0, 0.0, 0.0, 0.0, 0.0, 0.0, 0.0, 0.0, 0.0)",201.8125,-55.8125,130.125,"(0.0, 0.0, 0.0, 0.0, 0.0, 0.0, 0.0, 0.0, 0.0)",0.90234375,0.0498046875,0.1806640625,"(0.0, 0.0, 0.0, 0.0, 0.0, 0.0, 0.0, 0.0, 0.0)"
2022/11/28/22:58:34.273780,2544,1669697914,273385524,RU_myo,0.39317026230645025,-0.31175313565062834,-0.625703435139045,-0.5972623699054521,"(0.0, 0.0, 0.0, 0.0, 0.0, 0.0, 0.0, 0.0, 0.0)",208.6875,-48.5625,144.6875,"(0.0, 0.0, 0.0, 0.0, 0.0, 0.0, 0.0, 0.0, 0.0)",0.95068359375,0.203125,-0.03466796875,"(0.0, 0.0, 0.0, 0.0, 0.0, 0.0, 0.0, 0.0, 0.0)"
2022/11/28/22:58:34.296681,2545,1669697914,296132087,RU_myo,0.41624779172533327,-0.3190826180557247,-0.6402403717300215,-0.5612631514231914,"(0.0, 0.0, 0.0, 0.0, 0.0, 0.0, 0.0, 0.0, 0.0)",202.8125,-38.0625,159.3125,"(0.0, 0.0, 0.0, 0.0, 0.0, 0.0, 0.0, 0.0, 0.0)",0.9775390625,0.42431640625,-0.10595703125,"(0.0, 0.0, 0.0, 0.0, 0.0, 0.0, 0.0, 0.0, 0.0)"
2022/11/28/22:58:34.310313,2546,1669697914,310028553,RU_myo,0.4405359294537131,-0.3263432550275705,-0.6492686641075922,-0.5271417044460682,"(0.0, 0.0, 0.0, 0.0, 0.0, 0.0, 0.0, 0.0, 0.0)",181.1875,-17.125,173.4375,"(0.0, 0.0, 0.0, 0.0, 0.0, 0.0, 0.0, 0.0, 0.0)",0.984375,0.638671875,-0.13818359375,"(0.0, 0.0, 0.0, 0.0, 0.0, 0.0, 0.0, 0.0, 0.0)"
2022/11/28/22:58:34.334170,2547,1669697914,333590269,RU_myo,0.4647707968623861,-0.33147343371761245,-0.6546462990342683,-0.4955317268188723,"(0.0, 0.0, 0.0, 0.0, 0.0, 0.0, 0.0, 0.0, 0.0)",166.375,3.0625,168.4375,"(0.0, 0.0, 0.0, 0.0, 0.0, 0.0, 0.0, 0.0, 0.0)",1.00732421875,0.76416015625,-0.1787109375,"(0.0, 0.0, 0.0, 0.0, 0.0, 0.0, 0.0, 0.0, 0.0)"
2022/11/28/22:58:34.356256,2548,1669697914,355903387,RU_myo,0.4871084552441303,-0.33342607329892043,-0.65995535979887,-0.46477019003684406,"(0.0, 0.0, 0.0, 0.0, 0.0, 0.0, 0.0, 0.0, 0.0)",168.375,5.3125,147.1875,"(0.0, 0.0, 0.0, 0.0, 0.0, 0.0, 0.0, 0.0, 0.0)",1.09130859375,0.611328125,-0.072265625,"(0.0, 0.0, 0.0, 0.0, 0.0, 0.0, 0.0, 0.0, 0.0)"
2022/11/28/22:58:34.370734,2549,1669697914,370371818,RU_myo,0.5116467790975292,-0.32665317448765074,-0.6703347936094671,-0.42680972518537774,"(0.0, 0.0, 0.0, 0.0, 0.0, 0.0, 0.0, 0.0, 0.0)",237.5625,9.0,128.3125,"(0.0, 0.0, 0.0, 0.0, 0.0, 0.0, 0.0, 0.0, 0.0)",1.1728515625,0.41748046875,-0.12744140625,"(0.0, 0.0, 0.0, 0.0, 0.0, 0.0, 0.0, 0.0, 0.0)"
2022/11/28/22:58:34.393786,2550,1669697914,393436193,RU_myo,0.530991740885504,-0.3203650170009208,-0.6763125839945139,-0.3975114032629067,"(0.0, 0.0, 0.0, 0.0, 0.0, 0.0, 0.0, 0.0, 0.0)",183.5625,14.25,107.1875,"(0.0, 0.0, 0.0, 0.0, 0.0, 0.0, 0.0, 0.0, 0.0)",1.11279296875,0.802734375,0.02783203125,"(0.0, 0.0, 0.0, 0.0, 0.0, 0.0, 0.0, 0.0, 0.0)"
2022/11/28/22:58:34.416697,2551,1669697914,416166543,RU_myo,0.5442993281348231,-0.31395780936594864,-0.6760102442724041,-0.3849401056903262,"(0.0, 0.0, 0.0, 0.0, 0.0, 0.0, 0.0, 0.0, 0.0)",97.1875,42.1875,86.0,"(0.0, 0.0, 0.0, 0.0, 0.0, 0.0, 0.0, 0.0, 0.0)",1.14111328125,0.81103515625,-0.1142578125,"(0.0, 0.0, 0.0, 0.0, 0.0, 0.0, 0.0, 0.0, 0.0)"
2022/11/28/22:58:34.430505,2552,1669697914,430212497,RU_myo,0.5564994315027948,-0.3079728154598709,-0.6749645989240413,-0.37401058524337866,"(0.0, 0.0, 0.0, 0.0, 0.0, 0.0, 0.0, 0.0, 0.0)",80.5,53.875,54.0625,"(0.0, 0.0, 0.0, 0.0, 0.0, 0.0, 0.0, 0.0, 0.0)",1.0673828125,0.37841796875,-0.25146484375,"(0.0, 0.0, 0.0, 0.0, 0.0, 0.0, 0.0, 0.0, 0.0)"
2022/11/28/22:58:34.454267,2553,1669697914,453576564,RU_myo,0.5665128078483691,-0.3047401906471565,-0.6727110717630601,-0.3655905752005743,"(0.0, 0.0, 0.0, 0.0, 0.0, 0.0, 0.0, 0.0, 0.0)",55.0625,42.1875,40.25,"(0.0, 0.0, 0.0, 0.0, 0.0, 0.0, 0.0, 0.0, 0.0)",1.06396484375,0.16357421875,-0.16162109375,"(0.0, 0.0, 0.0, 0.0, 0.0, 0.0, 0.0, 0.0, 0.0)"
2022/11/28/22:58:34.476543,2554,1669697914,476234436,RU_myo,0.5753634765493967,-0.29991896931831286,-0.6718575527586463,-0.35722949275948007,"(0.0, 0.0, 0.0, 0.0, 0.0, 0.0, 0.0, 0.0, 0.0)",60.8125,39.375,34.0625,"(0.0, 0.0, 0.0, 0.0, 0.0, 0.0, 0.0, 0.0, 0.0)",1.029296875,0.21875,-0.185546875,"(0.0, 0.0, 0.0, 0.0, 0.0, 0.0, 0.0, 0.0, 0.0)"
2022/11/28/22:58:34.490377,2555,1669697914,489919185,RU_myo,0.5818277933578053,-0.2948505265615816,-0.6719125329986446,-0.3508178072192033,"(0.0, 0.0, 0.0, 0.0, 0.0, 0.0, 0.0, 0.0, 0.0)",52.1875,34.875,24.8125,"(0.0, 0.0, 0.0, 0.0, 0.0, 0.0, 0.0, 0.0, 0.0)",1.0166015625,0.2734375,-0.23828125,"(0.0, 0.0, 0.0, 0.0, 0.0, 0.0, 0.0, 0.0, 0.0)"
2022/11/28/22:58:34.514678,2556,1669697914,514045000,RU_myo,0.5856299527791523,-0.290465132389368,-0.6726046982414026,-0.34680035348526767,"(0.0, 0.0, 0.0, 0.0, 0.0, 0.0, 0.0, 0.0, 0.0)",37.0625,25.375,10.4375,"(0.0, 0.0, 0.0, 0.0, 0.0, 0.0, 0.0, 0.0, 0.0)",0.97119140625,0.232421875,-0.23095703125,"(0.0, 0.0, 0.0, 0.0, 0.0, 0.0, 0.0, 0.0, 0.0)"
2022/11/28/22:58:34.536978,2557,1669697914,536154270,RU_myo,0.5868306397723089,-0.28892940703922104,-0.6729479598678604,-0.34538477279994756,"(0.0, 0.0, 0.0, 0.0, 0.0, 0.0, 0.0, 0.0, 0.0)",12.5625,11.0625,3.625,"(0.0, 0.0, 0.0, 0.0, 0.0, 0.0, 0.0, 0.0, 0.0)",0.96435546875,0.1630859375,-0.169921875,"(0.0, 0.0, 0.0, 0.0, 0.0, 0.0, 0.0, 0.0, 0.0)"
2022/11/28/22:58:34.557360,2558,1669697914,556862831,RU_myo,0.5879234994228387,-0.28886555826516097,-0.6721479808101031,-0.34513727698911584,"(0.0, 0.0, 0.0, 0.0, 0.0, 0.0, 0.0, 0.0, 0.0)",1.1875,5.5625,1.4375,"(0.0, 0.0, 0.0, 0.0, 0.0, 0.0, 0.0, 0.0, 0.0)",0.98291015625,0.08642578125,-0.0576171875,"(0.0, 0.0, 0.0, 0.0, 0.0, 0.0, 0.0, 0.0, 0.0)"
2022/11/28/22:58:34.573870,2559,1669697914,573508977,RU_myo,0.5886737849802424,-0.28765365978350255,-0.6724125546010711,-0.3443543281346322,"(0.0, 0.0, 0.0, 0.0, 0.0, 0.0, 0.0, 0.0, 0.0)",8.4375,3.9375,-4.8125,"(0.0, 0.0, 0.0, 0.0, 0.0, 0.0, 0.0, 0.0, 0.0)",0.98486328125,0.068359375,-0.0830078125,"(0.0, 0.0, 0.0, 0.0, 0.0, 0.0, 0.0, 0.0, 0.0)"
2022/11/28/22:58:34.597338,2560,1669697914,596981525,RU_myo,0.5880543718079148,-0.2875271557433406,-0.6730735456458417,-0.34422694935097453,"(0.0, 0.0, 0.0, 0.0, 0.0, 0.0, 0.0, 0.0, 0.0)",0.8125,-0.6875,-3.375,"(0.0, 0.0, 0.0, 0.0, 0.0, 0.0, 0.0, 0.0, 0.0)",0.93798828125,0.10693359375,-0.12060546875,"(0.0, 0.0, 0.0, 0.0, 0.0, 0.0, 0.0, 0.0, 0.0)"
2022/11/28/22:58:34.617593,2561,1669697914,617036819,RU_myo,0.5862183057993352,-0.2892335815911556,-0.6730066900623914,-0.3460549499096544,"(0.0, 0.0, 0.0, 0.0, 0.0, 0.0, 0.0, 0.0, 0.0)",-16.875,-3.25,-3.75,"(0.0, 0.0, 0.0, 0.0, 0.0, 0.0, 0.0, 0.0, 0.0)",0.912109375,0.10791015625,-0.12646484375,"(0.0, 0.0, 0.0, 0.0, 0.0, 0.0, 0.0, 0.0, 0.0)"
2022/11/28/22:58:34.633806,2562,1669697914,633464336,RU_myo,0.5833470402185732,-0.29161248777613963,-0.6732476669440345,-0.3484335899359525,"(0.0, 0.0, 0.0, 0.0, 0.0, 0.0, 0.0, 0.0, 0.0)",-22.0625,-7.875,-7.5625,"(0.0, 0.0, 0.0, 0.0, 0.0, 0.0, 0.0, 0.0, 0.0)",0.92041015625,0.08203125,-0.1376953125,"(0.0, 0.0, 0.0, 0.0, 0.0, 0.0, 0.0, 0.0, 0.0)"
2022/11/28/22:58:34.656818,2563,1669697914,656486034,RU_myo,0.5787834791516409,-0.2940608249027318,-0.674179300928928,-0.35216499785985106,"(0.0, 0.0, 0.0, 0.0, 0.0, 0.0, 0.0, 0.0, 0.0)",-29.4375,-14.6875,-17.6875,"(0.0, 0.0, 0.0, 0.0, 0.0, 0.0, 0.0, 0.0, 0.0)",0.9833984375,0.07861328125,-0.15234375,"(0.0, 0.0, 0.0, 0.0, 0.0, 0.0, 0.0, 0.0, 0.0)"
2022/11/28/22:58:34.677470,2564,1669697914,676906347,RU_myo,0.5720091220920447,-0.29692961790202704,-0.6755835437939439,-0.35808552276077954,"(0.0, 0.0, 0.0, 0.0, 0.0, 0.0, 0.0, 0.0, 0.0)",-42.25,-19.5,-26.3125,"(0.0, 0.0, 0.0, 0.0, 0.0, 0.0, 0.0, 0.0, 0.0)",1.0361328125,0.125,-0.1953125,"(0.0, 0.0, 0.0, 0.0, 0.0, 0.0, 0.0, 0.0, 0.0)"
2022/11/28/22:58:34.693785,2565,1669697914,693382740,RU_myo,0.5633291735733001,-0.3020494127859439,-0.6741640358928139,-0.37003952105903776,"(0.0, 0.0, 0.0, 0.0, 0.0, 0.0, 0.0, 0.0, 0.0)",-80.6875,-14.625,-27.6875,"(0.0, 0.0, 0.0, 0.0, 0.0, 0.0, 0.0, 0.0, 0.0)",1.0517578125,0.275390625,-0.16552734375,"(0.0, 0.0, 0.0, 0.0, 0.0, 0.0, 0.0, 0.0, 0.0)"
2022/11/28/22:58:34.716545,2566,1669697914,716098308,RU_myo,0.5531572782457336,-0.3092016740144418,-0.6707100662741219,-0.3854339856694039,"(0.0, 0.0, 0.0, 0.0, 0.0, 0.0, 0.0, 0.0, 0.0)",-107.5625,-14.25,-33.75,"(0.0, 0.0, 0.0, 0.0, 0.0, 0.0, 0.0, 0.0, 0.0)",1.021484375,0.41064453125,-0.220703125,"(0.0, 0.0, 0.0, 0.0, 0.0, 0.0, 0.0, 0.0, 0.0)"
2022/11/28/22:58:34.737220,2567,1669697914,736827135,RU_myo,0.5409368659099193,-0.31682311530389157,-0.6659327703873552,-0.4044056948571731,"(0.0, 0.0, 0.0, 0.0, 0.0, 0.0, 0.0, 0.0, 0.0)",-129.25,-12.875,-44.9375,"(0.0, 0.0, 0.0, 0.0, 0.0, 0.0, 0.0, 0.0, 0.0)",0.96484375,0.46337890625,-0.21533203125,"(0.0, 0.0, 0.0, 0.0, 0.0, 0.0, 0.0, 0.0, 0.0)"
2022/11/28/22:58:34.753571,2568,1669697914,753271818,RU_myo,0.5262965856460873,-0.32628801424840337,-0.6578859905693116,-0.42864211074944575,"(0.0, 0.0, 0.0, 0.0, 0.0, 0.0, 0.0, 0.0, 0.0)",-167.3125,-7.1875,-54.25,"(0.0, 0.0, 0.0, 0.0, 0.0, 0.0, 0.0, 0.0, 0.0)",0.93505859375,0.462890625,-0.17236328125,"(0.0, 0.0, 0.0, 0.0, 0.0, 0.0, 0.0, 0.0, 0.0)"
2022/11/28/22:58:34.776096,2569,1669697914,775734901,RU_myo,0.5069286110666188,-0.33610111499444617,-0.647667519942085,-0.458896728462546,"(0.0, 0.0, 0.0, 0.0, 0.0, 0.0, 0.0, 0.0, 0.0)",-205.375,-6.625,-76.5625,"(0.0, 0.0, 0.0, 0.0, 0.0, 0.0, 0.0, 0.0, 0.0)",0.87841796875,0.6220703125,-0.2353515625,"(0.0, 0.0, 0.0, 0.0, 0.0, 0.0, 0.0, 0.0, 0.0)"
2022/11/28/22:58:34.797890,2570,1669697914,797085523,RU_myo,0.4837575057196656,-0.3473459456283897,-0.6332303963968623,-0.49431643184753615,"(0.0, 0.0, 0.0, 0.0, 0.0, 0.0, 0.0, 0.0, 0.0)",-247.3125,-3.5,-91.1875,"(0.0, 0.0, 0.0, 0.0, 0.0, 0.0, 0.0, 0.0, 0.0)",0.923828125,0.47021484375,-0.1474609375,"(0.0, 0.0, 0.0, 0.0, 0.0, 0.0, 0.0, 0.0, 0.0)"
2022/11/28/22:58:34.813849,2571,1669697914,813405990,RU_myo,0.45908700209258435,-0.35679641242133053,-0.6172223945974882,-0.5300678826341525,"(0.0, 0.0, 0.0, 0.0, 0.0, 0.0, 0.0, 0.0, 0.0)",-251.5,1.1875,-105.0,"(0.0, 0.0, 0.0, 0.0, 0.0, 0.0, 0.0, 0.0, 0.0)",0.998046875,0.23095703125,-0.1572265625,"(0.0, 0.0, 0.0, 0.0, 0.0, 0.0, 0.0, 0.0, 0.0)"
2022/11/28/22:58:34.836817,2572,1669697914,835891962,RU_myo,0.4351065484543622,-0.3605238296703489,-0.604779182021921,-0.5612013905229148,"(0.0, 0.0, 0.0, 0.0, 0.0, 0.0, 0.0, 0.0, 0.0)",-207.0625,0.5,-120.875,"(0.0, 0.0, 0.0, 0.0, 0.0, 0.0, 0.0, 0.0, 0.0)",1.09228515625,0.14453125,-0.00390625,"(0.0, 0.0, 0.0, 0.0, 0.0, 0.0, 0.0, 0.0, 0.0)"
2022/11/28/22:58:34.857891,2573,1669697914,856889009,RU_myo,0.41496202342590005,-0.3577132547873511,-0.5955580856875912,-0.5875017557725715,"(0.0, 0.0, 0.0, 0.0, 0.0, 0.0, 0.0, 0.0, 0.0)",-154.0,13.5625,-124.75,"(0.0, 0.0, 0.0, 0.0, 0.0, 0.0, 0.0, 0.0, 0.0)",1.09375,0.25732421875,0.2255859375,"(0.0, 0.0, 0.0, 0.0, 0.0, 0.0, 0.0, 0.0, 0.0)"
2022/11/28/22:58:34.874353,2574,1669697914,873850107,RU_myo,0.3975612461377975,-0.35203151177814185,-0.5889570195317386,-0.6092195822762503,"(0.0, 0.0, 0.0, 0.0, 0.0, 0.0, 0.0, 0.0, 0.0)",-117.5,17.875,-117.625,"(0.0, 0.0, 0.0, 0.0, 0.0, 0.0, 0.0, 0.0, 0.0)",1.0673828125,0.4111328125,0.2001953125,"(0.0, 0.0, 0.0, 0.0, 0.0, 0.0, 0.0, 0.0, 0.0)"
2022/11/28/22:58:34.897239,2575,1669697914,896737575,RU_myo,0.3821834636734022,-0.3442214524302122,-0.5835896326485264,-0.6283872472023874,"(0.0, 0.0, 0.0, 0.0, 0.0, 0.0, 0.0, 0.0, 0.0)",-95.3125,23.75,-114.125,"(0.0, 0.0, 0.0, 0.0, 0.0, 0.0, 0.0, 0.0, 0.0)",1.02685546875,0.4677734375,0.24658203125,"(0.0, 0.0, 0.0, 0.0, 0.0, 0.0, 0.0, 0.0, 0.0)"
2022/11/28/22:58:34.917551,2576,1669697914,917019844,RU_myo,0.3682650686640788,-0.3348807477228705,-0.5793125674112424,-0.6454708926402549,"(0.0, 0.0, 0.0, 0.0, 0.0, 0.0, 0.0, 0.0, 0.0)",-77.625,26.5625,-112.9375,"(0.0, 0.0, 0.0, 0.0, 0.0, 0.0, 0.0, 0.0, 0.0)",1.0595703125,0.44775390625,0.35791015625,"(0.0, 0.0, 0.0, 0.0, 0.0, 0.0, 0.0, 0.0, 0.0)"
2022/11/28/22:58:34.934655,2577,1669697914,934240818,RU_myo,0.3572142537274292,-0.3235861905455031,-0.5750948082818325,-0.6610264107503477,"(0.0, 0.0, 0.0, 0.0, 0.0, 0.0, 0.0, 0.0, 0.0)",-61.625,39.9375,-107.4375,"(0.0, 0.0, 0.0, 0.0, 0.0, 0.0, 0.0, 0.0, 0.0)",1.0234375,0.35546875,0.42724609375,"(0.0, 0.0, 0.0, 0.0, 0.0, 0.0, 0.0, 0.0, 0.0)"
2022/11/28/22:58:34.956529,2578,1669697914,956030607,RU_myo,0.35222156671225163,-0.31200080558534576,-0.567912264470196,-0.6753303821991101,"(0.0, 0.0, 0.0, 0.0, 0.0, 0.0, 0.0, 0.0, 0.0)",-45.8125,52.0625,-92.125,"(0.0, 0.0, 0.0, 0.0, 0.0, 0.0, 0.0, 0.0, 0.0)",0.9599609375,0.3134765625,0.46533203125,"(0.0, 0.0, 0.0, 0.0, 0.0, 0.0, 0.0, 0.0, 0.0)"
2022/11/28/22:58:34.977390,2579,1669697914,976870059,RU_myo,0.35137049569910006,-0.2985764226089973,-0.5616312839018792,-0.6869943198869325,"(0.0, 0.0, 0.0, 0.0, 0.0, 0.0, 0.0, 0.0, 0.0)",-23.3125,68.3125,-75.9375,"(0.0, 0.0, 0.0, 0.0, 0.0, 0.0, 0.0, 0.0, 0.0)",0.87451171875,0.3154296875,0.45458984375,"(0.0, 0.0, 0.0, 0.0, 0.0, 0.0, 0.0, 0.0, 0.0)"
2022/11/28/22:58:34.994632,2580,1669697914,994223117,RU_myo,0.3547322910242437,-0.28411541891222547,-0.5570004968835596,-0.6951214835641968,"(0.0, 0.0, 0.0, 0.0, 0.0, 0.0, 0.0, 0.0, 0.0)",1.0,83.125,-62.0,"(0.0, 0.0, 0.0, 0.0, 0.0, 0.0, 0.0, 0.0, 0.0)",0.84130859375,0.251953125,0.37109375,"(0.0, 0.0, 0.0, 0.0, 0.0, 0.0, 0.0, 0.0, 0.0)"
2022/11/28/22:58:35.016766,2581,1669697915,16198396,RU_myo,0.360349137453264,-0.26769839377879673,-0.5548668713732424,-0.7004347393993323,"(0.0, 0.0, 0.0, 0.0, 0.0, 0.0, 0.0, 0.0, 0.0)",27.1875,90.75,-57.0,"(0.0, 0.0, 0.0, 0.0, 0.0, 0.0, 0.0, 0.0, 0.0)",0.818359375,0.259765625,0.3603515625,"(0.0, 0.0, 0.0, 0.0, 0.0, 0.0, 0.0, 0.0, 0.0)"
2022/11/28/22:58:35.037581,2582,1669697915,37024497,RU_myo,0.36784897446741477,-0.24706365499321303,-0.5579073296178262,-0.7017022829686191,"(0.0, 0.0, 0.0, 0.0, 0.0, 0.0, 0.0, 0.0, 0.0)",64.5625,101.1875,-46.9375,"(0.0, 0.0, 0.0, 0.0, 0.0, 0.0, 0.0, 0.0, 0.0)",0.8134765625,0.3291015625,0.37353515625,"(0.0, 0.0, 0.0, 0.0, 0.0, 0.0, 0.0, 0.0, 0.0)"
2022/11/28/22:58:35.053683,2583,1669697915,53336858,RU_myo,0.3790741312647434,-0.22502758363759603,-0.5634539333176801,-0.6987024077795496,"(0.0, 0.0, 0.0, 0.0, 0.0, 0.0, 0.0, 0.0, 0.0)",96.0625,108.25,-31.125,"(0.0, 0.0, 0.0, 0.0, 0.0, 0.0, 0.0, 0.0, 0.0)",0.822265625,0.35595703125,0.314453125,"(0.0, 0.0, 0.0, 0.0, 0.0, 0.0, 0.0, 0.0, 0.0)"
2022/11/28/22:58:35.077682,2584,1669697915,76219320,RU_myo,0.3915902154879255,-0.2033632478188541,-0.5698687409617769,-0.6932172175049653,"(0.0, 0.0, 0.0, 0.0, 0.0, 0.0, 0.0, 0.0, 0.0)",107.5,106.375,-19.9375,"(0.0, 0.0, 0.0, 0.0, 0.0, 0.0, 0.0, 0.0, 0.0)",0.806640625,0.39599609375,0.2587890625,"(0.0, 0.0, 0.0, 0.0, 0.0, 0.0, 0.0, 0.0, 0.0)"
2022/11/28/22:58:35.098110,2585,1669697915,96684455,RU_myo,0.40440256227260923,-0.18285392039974907,-0.5770640244925325,-0.6855801361316359,"(0.0, 0.0, 0.0, 0.0, 0.0, 0.0, 0.0, 0.0, 0.0)",113.6875,100.0625,-9.6875,"(0.0, 0.0, 0.0, 0.0, 0.0, 0.0, 0.0, 0.0, 0.0)",0.70458984375,0.4580078125,0.13232421875,"(0.0, 0.0, 0.0, 0.0, 0.0, 0.0, 0.0, 0.0, 0.0)"
2022/11/28/22:58:35.115317,2586,1669697915,113717555,RU_myo,0.4159997732169634,-0.1652158723735798,-0.5834738603219146,-0.6776475179031609,"(0.0, 0.0, 0.0, 0.0, 0.0, 0.0, 0.0, 0.0, 0.0)",102.3125,86.8125,-0.9375,"(0.0, 0.0, 0.0, 0.0, 0.0, 0.0, 0.0, 0.0, 0.0)",0.62353515625,0.580078125,0.04443359375,"(0.0, 0.0, 0.0, 0.0, 0.0, 0.0, 0.0, 0.0, 0.0)"
2022/11/28/22:58:35.136506,2587,1669697915,136034727,RU_myo,0.42247237000686805,-0.14953153806946354,-0.5911073249807162,-0.6706336899213329,"(0.0, 0.0, 0.0, 0.0, 0.0, 0.0, 0.0, 0.0, 0.0)",87.0,64.9375,-10.9375,"(0.0, 0.0, 0.0, 0.0, 0.0, 0.0, 0.0, 0.0, 0.0)",0.56591796875,0.67822265625,0.0556640625,"(0.0, 0.0, 0.0, 0.0, 0.0, 0.0, 0.0, 0.0, 0.0)"
2022/11/28/22:58:35.158107,2588,1669697915,156763315,RU_myo,0.4285214346392801,-0.14098910611262458,-0.5955111291518952,-0.6647239630617291,"(0.0, 0.0, 0.0, 0.0, 0.0, 0.0, 0.0, 0.0, 0.0)",55.1875,45.3125,5.1875,"(0.0, 0.0, 0.0, 0.0, 0.0, 0.0, 0.0, 0.0, 0.0)",0.56494140625,0.54541015625,0.046875,"(0.0, 0.0, 0.0, 0.0, 0.0, 0.0, 0.0, 0.0, 0.0)"
2022/11/28/22:58:35.172945,2589,1669697915,172650814,RU_myo,0.43375977028679913,-0.1393377734015425,-0.5958627602800084,-0.6613509034512108,"(0.0, 0.0, 0.0, 0.0, 0.0, 0.0, 0.0, 0.0, 0.0)",10.75,32.8125,18.625,"(0.0, 0.0, 0.0, 0.0, 0.0, 0.0, 0.0, 0.0, 0.0)",0.6142578125,0.5068359375,-0.03271484375,"(0.0, 0.0, 0.0, 0.0, 0.0, 0.0, 0.0, 0.0, 0.0)"
2022/11/28/22:58:35.197071,2590,1669697915,195899248,RU_myo,0.4346227891987416,-0.13689915969284897,-0.597339311597821,-0.6599601488001675,"(0.0, 0.0, 0.0, 0.0, 0.0, 0.0, 0.0, 0.0, 0.0)",2.5625,19.4375,5.8125,"(0.0, 0.0, 0.0, 0.0, 0.0, 0.0, 0.0, 0.0, 0.0)",0.5966796875,0.74560546875,-0.03125,"(0.0, 0.0, 0.0, 0.0, 0.0, 0.0, 0.0, 0.0, 0.0)"
2022/11/28/22:58:35.217197,2591,1669697915,216795921,RU_myo,0.4341204695125989,-0.13463654656892918,-0.5981744301550657,-0.659999825293019,"(0.0, 0.0, 0.0, 0.0, 0.0, 0.0, 0.0, 0.0, 0.0)",-0.625,10.4375,-1.1875,"(0.0, 0.0, 0.0, 0.0, 0.0, 0.0, 0.0, 0.0, 0.0)",0.57861328125,0.7470703125,0.08740234375,"(0.0, 0.0, 0.0, 0.0, 0.0, 0.0, 0.0, 0.0, 0.0)"
2022/11/28/22:58:35.233097,2592,1669697915,232714414,RU_myo,0.4352390409550497,-0.13738929760059135,-0.5958215562758653,-0.6608236006759673,"(0.0, 0.0, 0.0, 0.0, 0.0, 0.0, 0.0, 0.0, 0.0)",-20.375,4.25,8.875,"(0.0, 0.0, 0.0, 0.0, 0.0, 0.0, 0.0, 0.0, 0.0)",0.69482421875,0.572265625,0.15966796875,"(0.0, 0.0, 0.0, 0.0, 0.0, 0.0, 0.0, 0.0, 0.0)"
2022/11/28/22:58:35.257042,2593,1669697915,255946397,RU_myo,0.437678730911886,-0.14074566357311522,-0.5945375146859129,-0.6596613754979311,"(0.0, 0.0, 0.0, 0.0, 0.0, 0.0, 0.0, 0.0, 0.0)",-8.9375,2.125,18.1875,"(0.0, 0.0, 0.0, 0.0, 0.0, 0.0, 0.0, 0.0, 0.0)",0.72119140625,0.544921875,0.1748046875,"(0.0, 0.0, 0.0, 0.0, 0.0, 0.0, 0.0, 0.0, 0.0)"
2022/11/28/22:58:35.278893,2594,1669697915,278436183,RU_myo,0.44029346148805704,-0.14135287729502913,-0.5973318696400907,-0.6552523707424148,"(0.0, 0.0, 0.0, 0.0, 0.0, 0.0, 0.0, 0.0, 0.0)",23.3125,-0.375,19.25,"(0.0, 0.0, 0.0, 0.0, 0.0, 0.0, 0.0, 0.0, 0.0)",0.71240234375,0.630859375,0.1787109375,"(0.0, 0.0, 0.0, 0.0, 0.0, 0.0, 0.0, 0.0, 0.0)"
2022/11/28/22:58:35.294423,2595,1669697915,294066905,RU_myo,0.44206685918832717,-0.13976710030943934,-0.6011816323353614,-0.6508630382968826,"(0.0, 0.0, 0.0, 0.0, 0.0, 0.0, 0.0, 0.0, 0.0)",32.5,-0.75,14.3125,"(0.0, 0.0, 0.0, 0.0, 0.0, 0.0, 0.0, 0.0, 0.0)",0.6982421875,0.74560546875,0.2158203125,"(0.0, 0.0, 0.0, 0.0, 0.0, 0.0, 0.0, 0.0, 0.0)"
2022/11/28/22:58:35.316443,2596,1669697915,315906047,RU_myo,0.44408480649597554,-0.1392189999474052,-0.6035671593511135,-0.647389711723861,"(0.0, 0.0, 0.0, 0.0, 0.0, 0.0, 0.0, 0.0, 0.0)",23.8125,0.125,13.1875,"(0.0, 0.0, 0.0, 0.0, 0.0, 0.0, 0.0, 0.0, 0.0)",0.72265625,0.6826171875,0.2392578125,"(0.0, 0.0, 0.0, 0.0, 0.0, 0.0, 0.0, 0.0, 0.0)"
2022/11/28/22:58:35.338850,2597,1669697915,338541984,RU_myo,0.44633373510175695,-0.13964331818854367,-0.6049582910335861,-0.6444465894898744,"(0.0, 0.0, 0.0, 0.0, 0.0, 0.0, 0.0, 0.0, 0.0)",15.9375,0.125,16.6875,"(0.0, 0.0, 0.0, 0.0, 0.0, 0.0, 0.0, 0.0, 0.0)",0.7548828125,0.69189453125,0.24072265625,"(0.0, 0.0, 0.0, 0.0, 0.0, 0.0, 0.0, 0.0, 0.0)"
2022/11/28/22:58:35.352719,2598,1669697915,352435350,RU_myo,0.44786896749284116,-0.13873073904486619,-0.6056423772732983,-0.6429342741304973,"(0.0, 0.0, 0.0, 0.0, 0.0, 0.0, 0.0, 0.0, 0.0)",12.0,2.75,12.125,"(0.0, 0.0, 0.0, 0.0, 0.0, 0.0, 0.0, 0.0, 0.0)",0.72119140625,0.7822265625,0.28955078125,"(0.0, 0.0, 0.0, 0.0, 0.0, 0.0, 0.0, 0.0, 0.0)"
2022/11/28/22:58:35.376777,2599,1669697915,376410961,RU_myo,0.44773727208051933,-0.13769019708473987,-0.6050190264632208,-0.643835943726472,"(0.0, 0.0, 0.0, 0.0, 0.0, 0.0, 0.0, 0.0, 0.0)",-2.625,2.3125,3.125,"(0.0, 0.0, 0.0, 0.0, 0.0, 0.0, 0.0, 0.0, 0.0)",0.703125,0.82080078125,0.29052734375,"(0.0, 0.0, 0.0, 0.0, 0.0, 0.0, 0.0, 0.0, 0.0)"
2022/11/28/22:58:35.399792,2600,1669697915,398820400,RU_myo,0.4464153494367903,-0.13830697044350107,-0.6023006109163586,-0.6471618744979885,"(0.0, 0.0, 0.0, 0.0, 0.0, 0.0, 0.0, 0.0, 0.0)",-24.125,0.6875,-3.9375,"(0.0, 0.0, 0.0, 0.0, 0.0, 0.0, 0.0, 0.0, 0.0)",0.67529296875,0.72021484375,0.2607421875,"(0.0, 0.0, 0.0, 0.0, 0.0, 0.0, 0.0, 0.0, 0.0)"
2022/11/28/22:58:35.412794,2601,1669697915,412398099,RU_myo,0.4449916175709383,-0.1403759045965105,-0.5992830466231029,-0.65048973529983,"(0.0, 0.0, 0.0, 0.0, 0.0, 0.0, 0.0, 0.0, 0.0)",-27.75,-3.0625,-5.5,"(0.0, 0.0, 0.0, 0.0, 0.0, 0.0, 0.0, 0.0, 0.0)",0.693359375,0.609375,0.25537109375,"(0.0, 0.0, 0.0, 0.0, 0.0, 0.0, 0.0, 0.0, 0.0)"
2022/11/28/22:58:35.436155,2602,1669697915,435835361,RU_myo,0.44487647779229494,-0.1421480747397798,-0.5972782565064342,-0.6520257116552458,"(0.0, 0.0, 0.0, 0.0, 0.0, 0.0, 0.0, 0.0, 0.0)",-14.5,-2.375,-1.5625,"(0.0, 0.0, 0.0, 0.0, 0.0, 0.0, 0.0, 0.0, 0.0)",0.71240234375,0.5537109375,0.27294921875,"(0.0, 0.0, 0.0, 0.0, 0.0, 0.0, 0.0, 0.0, 0.0)"
2022/11/28/22:58:35.459257,2603,1669697915,458577394,RU_myo,0.4456070625974706,-0.14233059443600898,-0.5970927124217307,-0.6516568425357067,"(0.0, 0.0, 0.0, 0.0, 0.0, 0.0, 0.0, 0.0, 0.0)",3.0,1.0625,0.6875,"(0.0, 0.0, 0.0, 0.0, 0.0, 0.0, 0.0, 0.0, 0.0)",0.72021484375,0.57958984375,0.26953125,"(0.0, 0.0, 0.0, 0.0, 0.0, 0.0, 0.0, 0.0, 0.0)"
2022/11/28/22:58:35.472938,2604,1669697915,472664594,RU_myo,0.4462798297800199,-0.14117139582620158,-0.5981931908744496,-0.6504382037699223,"(0.0, 0.0, 0.0, 0.0, 0.0, 0.0, 0.0, 0.0, 0.0)",12.25,2.1875,0.75,"(0.0, 0.0, 0.0, 0.0, 0.0, 0.0, 0.0, 0.0, 0.0)",0.70166015625,0.6337890625,0.24658203125,"(0.0, 0.0, 0.0, 0.0, 0.0, 0.0, 0.0, 0.0, 0.0)"
2022/11/28/22:58:35.496272,2605,1669697915,495845079,RU_myo,0.4468316290953352,-0.14013460188538307,-0.5994782490061988,-0.6490990814682269,"(0.0, 0.0, 0.0, 0.0, 0.0, 0.0, 0.0, 0.0, 0.0)",12.125,1.25,1.75,"(0.0, 0.0, 0.0, 0.0, 0.0, 0.0, 0.0, 0.0, 0.0)",0.69189453125,0.6533203125,0.23486328125,"(0.0, 0.0, 0.0, 0.0, 0.0, 0.0, 0.0, 0.0, 0.0)"
2022/11/28/22:58:35.519089,2606,1669697915,518795251,RU_myo,0.44749565175850303,-0.1398881660979936,-0.5997125305754297,-0.6484780823696256,"(0.0, 0.0, 0.0, 0.0, 0.0, 0.0, 0.0, 0.0, 0.0)",4.875,0.875,3.5625,"(0.0, 0.0, 0.0, 0.0, 0.0, 0.0, 0.0, 0.0, 0.0)",0.70263671875,0.64794921875,0.2578125,"(0.0, 0.0, 0.0, 0.0, 0.0, 0.0, 0.0, 0.0, 0.0)"
2022/11/28/22:58:35.533178,2607,1669697915,532907247,RU_myo,0.4478624383925295,-0.14025454939030155,-0.5992860837525548,-0.6485399659796972,"(0.0, 0.0, 0.0, 0.0, 0.0, 0.0, 0.0, 0.0, 0.0)",-1.5625,0.0,2.9375,"(0.0, 0.0, 0.0, 0.0, 0.0, 0.0, 0.0, 0.0, 0.0)",0.71923828125,0.6533203125,0.26416015625,"(0.0, 0.0, 0.0, 0.0, 0.0, 0.0, 0.0, 0.0, 0.0)"
2022/11/28/22:58:35.556347,2608,1669697915,555979967,RU_myo,0.44744934888118193,-0.1404420886339653,-0.5989998513054043,-0.6490487486021673,"(0.0, 0.0, 0.0, 0.0, 0.0, 0.0, 0.0, 0.0, 0.0)",-3.625,-1.375,-0.4375,"(0.0, 0.0, 0.0, 0.0, 0.0, 0.0, 0.0, 0.0, 0.0)",0.72412109375,0.689453125,0.25341796875,"(0.0, 0.0, 0.0, 0.0, 0.0, 0.0, 0.0, 0.0, 0.0)"
2022/11/28/22:58:35.579311,2609,1669697915,578530311,RU_myo,0.44675007462521843,-0.14116569980985386,-0.5985352434220652,-0.6498016454282378,"(0.0, 0.0, 0.0, 0.0, 0.0, 0.0, 0.0, 0.0, 0.0)",-6.9375,-3.4375,-1.1875,"(0.0, 0.0, 0.0, 0.0, 0.0, 0.0, 0.0, 0.0, 0.0)",0.72216796875,0.66796875,0.2470703125,"(0.0, 0.0, 0.0, 0.0, 0.0, 0.0, 0.0, 0.0, 0.0)"
2022/11/28/22:58:35.593078,2610,1669697915,592826128,RU_myo,0.44657292623353406,-0.1423882242589634,-0.5975056645929068,-0.6506037165025931,"(0.0, 0.0, 0.0, 0.0, 0.0, 0.0, 0.0, 0.0, 0.0)",-8.125,-3.25,1.0,"(0.0, 0.0, 0.0, 0.0, 0.0, 0.0, 0.0, 0.0, 0.0)",0.7353515625,0.63671875,0.27783203125,"(0.0, 0.0, 0.0, 0.0, 0.0, 0.0, 0.0, 0.0, 0.0)"
2022/11/28/22:58:35.617342,2611,1669697915,616445541,RU_myo,0.44669665380771184,-0.14263288426678816,-0.5970196293956875,-0.6509113011148034,"(0.0, 0.0, 0.0, 0.0, 0.0, 0.0, 0.0, 0.0, 0.0)",-1.625,-1.0,0.875,"(0.0, 0.0, 0.0, 0.0, 0.0, 0.0, 0.0, 0.0, 0.0)",0.73486328125,0.66357421875,0.2939453125,"(0.0, 0.0, 0.0, 0.0, 0.0, 0.0, 0.0, 0.0, 0.0)"
2022/11/28/22:58:35.638618,2612,1669697915,638236045,RU_myo,0.44627401297023284,-0.14159678748508484,-0.5968426658692433,-0.6515893548236058,"(0.0, 0.0, 0.0, 0.0, 0.0, 0.0, 0.0, 0.0, 0.0)",-0.1875,1.6875,-4.25,"(0.0, 0.0, 0.0, 0.0, 0.0, 0.0, 0.0, 0.0, 0.0)",0.73095703125,0.716796875,0.28125,"(0.0, 0.0, 0.0, 0.0, 0.0, 0.0, 0.0, 0.0, 0.0)"
2022/11/28/22:58:35.654253,2613,1669697915,653990507,RU_myo,0.4453028097448475,-0.14007263546661525,-0.5961173989553077,-0.6532450620475744,"(0.0, 0.0, 0.0, 0.0, 0.0, 0.0, 0.0, 0.0, 0.0)",-3.5625,1.875,-8.1875,"(0.0, 0.0, 0.0, 0.0, 0.0, 0.0, 0.0, 0.0, 0.0)",0.71337890625,0.74072265625,0.32373046875,"(0.0, 0.0, 0.0, 0.0, 0.0, 0.0, 0.0, 0.0, 0.0)"
2022/11/28/22:58:35.676656,2614,1669697915,676266908,RU_myo,0.4451337938971482,-0.13769667338982125,-0.5944272615884172,-0.6554019853102396,"(0.0, 0.0, 0.0, 0.0, 0.0, 0.0, 0.0, 0.0, 0.0)",-2.3125,6.75,-8.8125,"(0.0, 0.0, 0.0, 0.0, 0.0, 0.0, 0.0, 0.0, 0.0)",0.712890625,0.73974609375,0.40478515625,"(0.0, 0.0, 0.0, 0.0, 0.0, 0.0, 0.0, 0.0, 0.0)"
2022/11/28/22:58:35.699816,2615,1669697915,698973655,RU_myo,0.44566718736307526,-0.13537247624915105,-0.5908660696880214,-0.6587354085469285,"(0.0, 0.0, 0.0, 0.0, 0.0, 0.0, 0.0, 0.0, 0.0)",-14.0625,16.75,-9.8125,"(0.0, 0.0, 0.0, 0.0, 0.0, 0.0, 0.0, 0.0, 0.0)",0.7021484375,0.69140625,0.37255859375,"(0.0, 0.0, 0.0, 0.0, 0.0, 0.0, 0.0, 0.0, 0.0)"
2022/11/28/22:58:35.719898,2616,1669697915,719116210,RU_myo,0.44574106537476377,-0.13275185775573206,-0.5852068101894065,-0.6642475714738538,"(0.0, 0.0, 0.0, 0.0, 0.0, 0.0, 0.0, 0.0, 0.0)",-30.75,25.75,-16.8125,"(0.0, 0.0, 0.0, 0.0, 0.0, 0.0, 0.0, 0.0, 0.0)",0.70849609375,0.7041015625,0.3515625,"(0.0, 0.0, 0.0, 0.0, 0.0, 0.0, 0.0, 0.0, 0.0)"
2022/11/28/22:58:35.736023,2617,1669697915,735527992,RU_myo,0.4448013484001854,-0.12816723815043762,-0.5794379804763118,-0.6708029116721237,"(0.0, 0.0, 0.0, 0.0, 0.0, 0.0, 0.0, 0.0, 0.0)",-30.875,30.0625,-27.5,"(0.0, 0.0, 0.0, 0.0, 0.0, 0.0, 0.0, 0.0, 0.0)",0.6845703125,0.73828125,0.37255859375,"(0.0, 0.0, 0.0, 0.0, 0.0, 0.0, 0.0, 0.0, 0.0)"
2022/11/28/22:58:35.760518,2618,1669697915,758964776,RU_myo,0.44444236690863337,-0.12279841282891656,-0.5731609815488844,-0.6774053598350621,"(0.0, 0.0, 0.0, 0.0, 0.0, 0.0, 0.0, 0.0, 0.0)",-29.375,36.1875,-29.875,"(0.0, 0.0, 0.0, 0.0, 0.0, 0.0, 0.0, 0.0, 0.0)",0.712890625,0.73095703125,0.41748046875,"(0.0, 0.0, 0.0, 0.0, 0.0, 0.0, 0.0, 0.0, 0.0)"
2022/11/28/22:58:35.779070,2619,1669697915,778888225,RU_myo,0.44506354376647833,-0.1162096801057837,-0.5654235695903257,-0.6846239399929495,"(0.0, 0.0, 0.0, 0.0, 0.0, 0.0, 0.0, 0.0, 0.0)",-33.125,49.3125,-33.3125,"(0.0, 0.0, 0.0, 0.0, 0.0, 0.0, 0.0, 0.0, 0.0)",0.74609375,0.736328125,0.43798828125,"(0.0, 0.0, 0.0, 0.0, 0.0, 0.0, 0.0, 0.0, 0.0)"
2022/11/28/22:58:35.796527,2620,1669697915,796200990,RU_myo,0.4461481011098965,-0.10821075010504055,-0.5563729260899886,-0.6925976267298366,"(0.0, 0.0, 0.0, 0.0, 0.0, 0.0, 0.0, 0.0, 0.0)",-37.625,61.625,-37.1875,"(0.0, 0.0, 0.0, 0.0, 0.0, 0.0, 0.0, 0.0, 0.0)",0.73291015625,0.73291015625,0.443359375,"(0.0, 0.0, 0.0, 0.0, 0.0, 0.0, 0.0, 0.0, 0.0)"
2022/11/28/22:58:35.819724,2621,1669697915,818827629,RU_myo,0.4478103713309301,-0.0997914620588893,-0.5460149355222162,-0.7009816157469991,"(0.0, 0.0, 0.0, 0.0, 0.0, 0.0, 0.0, 0.0, 0.0)",-42.5625,69.1875,-37.9375,"(0.0, 0.0, 0.0, 0.0, 0.0, 0.0, 0.0, 0.0, 0.0)",0.71142578125,0.71142578125,0.45947265625,"(0.0, 0.0, 0.0, 0.0, 0.0, 0.0, 0.0, 0.0, 0.0)"
2022/11/28/22:58:35.839185,2622,1669697915,838890790,RU_myo,0.449438287634882,-0.09124256382593002,-0.5353100517172121,-0.709311757046795,"(0.0, 0.0, 0.0, 0.0, 0.0, 0.0, 0.0, 0.0, 0.0)",-45.5,72.0625,-37.8125,"(0.0, 0.0, 0.0, 0.0, 0.0, 0.0, 0.0, 0.0, 0.0)",0.68408203125,0.70751953125,0.44873046875,"(0.0, 0.0, 0.0, 0.0, 0.0, 0.0, 0.0, 0.0, 0.0)"
2022/11/28/22:58:35.863992,2623,1669697915,863608598,RU_myo,0.45061994404149514,-0.08306836568339088,-0.5245941242092172,-0.7175251337060568,"(0.0, 0.0, 0.0, 0.0, 0.0, 0.0, 0.0, 0.0, 0.0)",-47.5625,70.6875,-38.125,"(0.0, 0.0, 0.0, 0.0, 0.0, 0.0, 0.0, 0.0, 0.0)",0.65234375,0.68896484375,0.43115234375,"(0.0, 0.0, 0.0, 0.0, 0.0, 0.0, 0.0, 0.0, 0.0)"
2022/11/28/22:58:35.878790,2624,1669697915,878433227,RU_myo,0.451963863008359,-0.07604955750282448,-0.5141584850752756,-0.7249732295493975,"(0.0, 0.0, 0.0, 0.0, 0.0, 0.0, 0.0, 0.0, 0.0)",-45.875,66.1875,-35.0,"(0.0, 0.0, 0.0, 0.0, 0.0, 0.0, 0.0, 0.0, 0.0)",0.623046875,0.607421875,0.4296875,"(0.0, 0.0, 0.0, 0.0, 0.0, 0.0, 0.0, 0.0, 0.0)"
2022/11/28/22:58:35.900504,2625,1669697915,899699687,RU_myo,0.45377433545000834,-0.06921050388706247,-0.5054686006989871,-0.7306163509982582,"(0.0, 0.0, 0.0, 0.0, 0.0, 0.0, 0.0, 0.0, 0.0)",-34.375,62.375,-28.4375,"(0.0, 0.0, 0.0, 0.0, 0.0, 0.0, 0.0, 0.0, 0.0)",0.58447265625,0.5810546875,0.40673828125,"(0.0, 0.0, 0.0, 0.0, 0.0, 0.0, 0.0, 0.0, 0.0)"
2022/11/28/22:58:35.916273,2626,1669697915,915870428,RU_myo,0.45568015359569525,-0.062010586130890215,-0.4989532889960901,-0.734544689060299,"(0.0, 0.0, 0.0, 0.0, 0.0, 0.0, 0.0, 0.0, 0.0)",-21.75,58.9375,-24.5625,"(0.0, 0.0, 0.0, 0.0, 0.0, 0.0, 0.0, 0.0, 0.0)",0.552734375,0.58349609375,0.373046875,"(0.0, 0.0, 0.0, 0.0, 0.0, 0.0, 0.0, 0.0, 0.0)"
2022/11/28/22:58:35.938697,2627,1669697915,938384532,RU_myo,0.4569572511740603,-0.05523524940730928,-0.49424867370208897,-0.7374668713685282,"(0.0, 0.0, 0.0, 0.0, 0.0, 0.0, 0.0, 0.0, 0.0)",-14.25,50.75,-22.9375,"(0.0, 0.0, 0.0, 0.0, 0.0, 0.0, 0.0, 0.0, 0.0)",0.53466796875,0.60546875,0.365234375,"(0.0, 0.0, 0.0, 0.0, 0.0, 0.0, 0.0, 0.0, 0.0)"
2022/11/28/22:58:35.959697,2628,1669697915,959217071,RU_myo,0.4579884806351673,-0.04992465047435592,-0.4911291715979732,-0.7392876420487448,"(0.0, 0.0, 0.0, 0.0, 0.0, 0.0, 0.0, 0.0, 0.0)",-8.4375,40.125,-17.875,"(0.0, 0.0, 0.0, 0.0, 0.0, 0.0, 0.0, 0.0, 0.0)",0.5361328125,0.599609375,0.35888671875,"(0.0, 0.0, 0.0, 0.0, 0.0, 0.0, 0.0, 0.0, 0.0)"
2022/11/28/22:58:35.976290,2629,1669697915,975868463,RU_myo,0.45897542163225463,-0.04565340630065511,-0.48949240445354814,-0.7400368334163681,"(0.0, 0.0, 0.0, 0.0, 0.0, 0.0, 0.0, 0.0, 0.0)",-0.9375,29.8125,-11.9375,"(0.0, 0.0, 0.0, 0.0, 0.0, 0.0, 0.0, 0.0, 0.0)",0.521484375,0.62109375,0.40478515625,"(0.0, 0.0, 0.0, 0.0, 0.0, 0.0, 0.0, 0.0, 0.0)"
2022/11/28/22:58:35.998837,2630,1669697915,998509645,RU_myo,0.4594556457720408,-0.04192959997946227,-0.4891176335304377,-0.7402069702342335,"(0.0, 0.0, 0.0, 0.0, 0.0, 0.0, 0.0, 0.0, 0.0)",4.0,21.625,-9.375,"(0.0, 0.0, 0.0, 0.0, 0.0, 0.0, 0.0, 0.0, 0.0)",0.50146484375,0.6533203125,0.41259765625,"(0.0, 0.0, 0.0, 0.0, 0.0, 0.0, 0.0, 0.0, 0.0)"
2022/11/28/22:58:36.019708,2631,1669697916,19217252,RU_myo,0.4598225959481298,-0.04028177771778148,-0.4884470713263715,-0.7405133470452162,"(0.0, 0.0, 0.0, 0.0, 0.0, 0.0, 0.0, 0.0, 0.0)",-3.6875,13.1875,-4.125,"(0.0, 0.0, 0.0, 0.0, 0.0, 0.0, 0.0, 0.0, 0.0)",0.482421875,0.640625,0.39501953125,"(0.0, 0.0, 0.0, 0.0, 0.0, 0.0, 0.0, 0.0, 0.0)"
2022/11/28/22:58:36.036611,2632,1669697916,36079645,RU_myo,0.4598245999974065,-0.03997678696552976,-0.48716750161657796,-0.741371040107313,"(0.0, 0.0, 0.0, 0.0, 0.0, 0.0, 0.0, 0.0, 0.0)",-10.5625,7.0625,-2.3125,"(0.0, 0.0, 0.0, 0.0, 0.0, 0.0, 0.0, 0.0, 0.0)",0.4677734375,0.6474609375,0.4169921875,"(0.0, 0.0, 0.0, 0.0, 0.0, 0.0, 0.0, 0.0, 0.0)"
2022/11/28/22:58:36.058894,2633,1669697916,58502435,RU_myo,0.45982509673162136,-0.039732696837308935,-0.4860694279759268,-0.7421042409290927,"(0.0, 0.0, 0.0, 0.0, 0.0, 0.0, 0.0, 0.0, 0.0)",-6.125,4.3125,-2.3125,"(0.0, 0.0, 0.0, 0.0, 0.0, 0.0, 0.0, 0.0, 0.0)",0.47705078125,0.64453125,0.4921875,"(0.0, 0.0, 0.0, 0.0, 0.0, 0.0, 0.0, 0.0, 0.0)"
2022/11/28/22:58:36.080159,2634,1669697916,79320430,RU_myo,0.4602562896524756,-0.03979407251736031,-0.4856463727310368,-0.7421106253659264,"(0.0, 0.0, 0.0, 0.0, 0.0, 0.0, 0.0, 0.0, 0.0)",-0.9375,2.375,0.4375,"(0.0, 0.0, 0.0, 0.0, 0.0, 0.0, 0.0, 0.0, 0.0)",0.4921875,0.62060546875,0.4951171875,"(0.0, 0.0, 0.0, 0.0, 0.0, 0.0, 0.0, 0.0, 0.0)"
2022/11/28/22:58:36.096188,2635,1669697916,95836877,RU_myo,0.4605563883948024,-0.04034293304120917,-0.485702059216252,-0.7418583224143683,"(0.0, 0.0, 0.0, 0.0, 0.0, 0.0, 0.0, 0.0, 0.0)",0.375,-1.75,2.8125,"(0.0, 0.0, 0.0, 0.0, 0.0, 0.0, 0.0, 0.0, 0.0)",0.48779296875,0.64306640625,0.50830078125,"(0.0, 0.0, 0.0, 0.0, 0.0, 0.0, 0.0, 0.0, 0.0)"
2022/11/28/22:58:36.118650,2636,1669697916,118302822,RU_myo,0.46104575042042617,-0.0404650956484965,-0.4864356143567377,-0.7410666536410927,"(0.0, 0.0, 0.0, 0.0, 0.0, 0.0, 0.0, 0.0, 0.0)",5.5625,-2.0625,4.6875,"(0.0, 0.0, 0.0, 0.0, 0.0, 0.0, 0.0, 0.0, 0.0)",0.50146484375,0.68310546875,0.53515625,"(0.0, 0.0, 0.0, 0.0, 0.0, 0.0, 0.0, 0.0, 0.0)"
2022/11/28/22:58:36.139728,2637,1669697916,139213800,RU_myo,0.4614875676864059,-0.04052740972672577,-0.48718341029928475,-0.7402966153244832,"(0.0, 0.0, 0.0, 0.0, 0.0, 0.0, 0.0, 0.0, 0.0)",5.3125,-1.4375,4.0,"(0.0, 0.0, 0.0, 0.0, 0.0, 0.0, 0.0, 0.0, 0.0)",0.513671875,0.6982421875,0.53662109375,"(0.0, 0.0, 0.0, 0.0, 0.0, 0.0, 0.0, 0.0, 0.0)"
2022/11/28/22:58:36.156506,2638,1669697916,155872583,RU_myo,0.4617193314370775,-0.041014592296856056,-0.4872313843836338,-0.7400936699280901,"(0.0, 0.0, 0.0, 0.0, 0.0, 0.0, 0.0, 0.0, 0.0)",-1.0625,-1.6875,3.3125,"(0.0, 0.0, 0.0, 0.0, 0.0, 0.0, 0.0, 0.0, 0.0)",0.5087890625,0.6943359375,0.521484375,"(0.0, 0.0, 0.0, 0.0, 0.0, 0.0, 0.0, 0.0, 0.0)"
2022/11/28/22:58:36.178846,2639,1669697916,178502321,RU_myo,0.46171499291948004,-0.04192970259559587,-0.48698267395962075,-0.7402087817749443,"(0.0, 0.0, 0.0, 0.0, 0.0, 0.0, 0.0, 0.0, 0.0)",-3.1875,-3.8125,2.75,"(0.0, 0.0, 0.0, 0.0, 0.0, 0.0, 0.0, 0.0, 0.0)",0.5146484375,0.69921875,0.54150390625,"(0.0, 0.0, 0.0, 0.0, 0.0, 0.0, 0.0, 0.0, 0.0)"
2022/11/28/22:58:36.201380,2640,1669697916,200932264,RU_myo,0.4616651854686485,-0.04272417105077392,-0.4869334809186776,-0.7402267807196944,"(0.0, 0.0, 0.0, 0.0, 0.0, 0.0, 0.0, 0.0, 0.0)",-1.875,-4.0625,2.1875,"(0.0, 0.0, 0.0, 0.0, 0.0, 0.0, 0.0, 0.0, 0.0)",0.52001953125,0.6982421875,0.55322265625,"(0.0, 0.0, 0.0, 0.0, 0.0, 0.0, 0.0, 0.0, 0.0)"
2022/11/28/22:58:36.216450,2641,1669697916,215855121,RU_myo,0.461776697678013,-0.04296732687884234,-0.4867392497993859,-0.7402708916384642,"(0.0, 0.0, 0.0, 0.0, 0.0, 0.0, 0.0, 0.0, 0.0)",-0.5625,-1.3125,1.4375,"(0.0, 0.0, 0.0, 0.0, 0.0, 0.0, 0.0, 0.0, 0.0)",0.5283203125,0.70458984375,0.55908203125,"(0.0, 0.0, 0.0, 0.0, 0.0, 0.0, 0.0, 0.0, 0.0)"
2022/11/28/22:58:36.244752,2642,1669697916,244269847,RU_myo,0.461776697678013,-0.04296732687884234,-0.4867392497993859,-0.7402708916384642,"(0.0, 0.0, 0.0, 0.0, 0.0, 0.0, 0.0, 0.0, 0.0)",0.4375,-0.3125,0.75,"(0.0, 0.0, 0.0, 0.0, 0.0, 0.0, 0.0, 0.0, 0.0)",0.51611328125,0.71142578125,0.55029296875,"(0.0, 0.0, 0.0, 0.0, 0.0, 0.0, 0.0, 0.0, 0.0)"
2022/11/28/22:58:36.261349,2643,1669697916,260829687,RU_myo,0.4617714135038439,-0.04253960814329622,-0.4867947124116652,-0.7402624206169869,"(0.0, 0.0, 0.0, 0.0, 0.0, 0.0, 0.0, 0.0, 0.0)",1.75,0.0625,0.0,"(0.0, 0.0, 0.0, 0.0, 0.0, 0.0, 0.0, 0.0, 0.0)",0.5107421875,0.71484375,0.55859375,"(0.0, 0.0, 0.0, 0.0, 0.0, 0.0, 0.0, 0.0, 0.0)"
2022/11/28/22:58:36.276073,2644,1669697916,275768041,RU_myo,0.46183793209569735,-0.04229598083022575,-0.4867394619351376,-0.7402712142710074,"(0.0, 0.0, 0.0, 0.0, 0.0, 0.0, 0.0, 0.0, 0.0)",1.8125,0.5625,-0.5625,"(0.0, 0.0, 0.0, 0.0, 0.0, 0.0, 0.0, 0.0, 0.0)",0.52197265625,0.69384765625,0.55810546875,"(0.0, 0.0, 0.0, 0.0, 0.0, 0.0, 0.0, 0.0, 0.0)"
2022/11/28/22:58:36.299215,2645,1669697916,298696517,RU_myo,0.46220405272513776,-0.04180770845328395,-0.48643421368273443,-0.7402710888027461,"(0.0, 0.0, 0.0, 0.0, 0.0, 0.0, 0.0, 0.0, 0.0)",1.875,2.875,-0.1875,"(0.0, 0.0, 0.0, 0.0, 0.0, 0.0, 0.0, 0.0, 0.0)",0.525390625,0.68310546875,0.5625,"(0.0, 0.0, 0.0, 0.0, 0.0, 0.0, 0.0, 0.0, 0.0)"
2022/11/28/22:58:36.321454,2646,1669697916,321131467,RU_myo,0.4625169896717638,-0.04089289826868326,-0.48638135269124916,-0.7401614586631671,"(0.0, 0.0, 0.0, 0.0, 0.0, 0.0, 0.0, 0.0, 0.0)",3.625,3.625,-0.75,"(0.0, 0.0, 0.0, 0.0, 0.0, 0.0, 0.0, 0.0, 0.0)",0.5107421875,0.69482421875,0.55712890625,"(0.0, 0.0, 0.0, 0.0, 0.0, 0.0, 0.0, 0.0, 0.0)"
2022/11/28/22:58:36.335493,2647,1669697916,335117101,RU_myo,0.46289436268650686,-0.04016145710017425,-0.48614894498919137,-0.7401182808460683,"(0.0, 0.0, 0.0, 0.0, 0.0, 0.0, 0.0, 0.0, 0.0)",2.125,4.25,-0.125,"(0.0, 0.0, 0.0, 0.0, 0.0, 0.0, 0.0, 0.0, 0.0)",0.509765625,0.68603515625,0.54345703125,"(0.0, 0.0, 0.0, 0.0, 0.0, 0.0, 0.0, 0.0, 0.0)"
2022/11/28/22:58:36.359280,2648,1669697916,358751773,RU_myo,0.46311459201375316,-0.0396100909616402,-0.48539145364857395,-0.7405072937404938,"(0.0, 0.0, 0.0, 0.0, 0.0, 0.0, 0.0, 0.0, 0.0)",-2.0,4.125,-1.375,"(0.0, 0.0, 0.0, 0.0, 0.0, 0.0, 0.0, 0.0, 0.0)",0.50732421875,0.68701171875,0.54638671875,"(0.0, 0.0, 0.0, 0.0, 0.0, 0.0, 0.0, 0.0, 0.0)"
2022/11/28/22:58:36.381511,2649,1669697916,381054401,RU_myo,0.4634880831497878,-0.03924451375629623,-0.48430049246689044,-0.7410072185306259,"(0.0, 0.0, 0.0, 0.0, 0.0, 0.0, 0.0, 0.0, 0.0)",-3.0625,4.5625,-1.125,"(0.0, 0.0, 0.0, 0.0, 0.0, 0.0, 0.0, 0.0, 0.0)",0.51025390625,0.66455078125,0.55615234375,"(0.0, 0.0, 0.0, 0.0, 0.0, 0.0, 0.0, 0.0, 0.0)"
2022/11/28/22:58:36.395429,2650,1669697916,395113229,RU_myo,0.4641173864824196,-0.03881886609716187,-0.48340474762503466,-0.7412206130250532,"(0.0, 0.0, 0.0, 0.0, 0.0, 0.0, 0.0, 0.0, 0.0)",-2.0625,5.875,0.125,"(0.0, 0.0, 0.0, 0.0, 0.0, 0.0, 0.0, 0.0, 0.0)",0.517578125,0.673828125,0.54833984375,"(0.0, 0.0, 0.0, 0.0, 0.0, 0.0, 0.0, 0.0, 0.0)"
2022/11/28/22:58:36.419226,2651,1669697916,418697118,RU_myo,0.46453106817890094,-0.038146356275366326,-0.4827192508509956,-0.7414430976530402,"(0.0, 0.0, 0.0, 0.0, 0.0, 0.0, 0.0, 0.0, 0.0)",-1.3125,5.3125,-0.125,"(0.0, 0.0, 0.0, 0.0, 0.0, 0.0, 0.0, 0.0, 0.0)",0.49951171875,0.68701171875,0.5439453125,"(0.0, 0.0, 0.0, 0.0, 0.0, 0.0, 0.0, 0.0, 0.0)"
2022/11/28/22:58:36.442074,2652,1669697916,441590070,RU_myo,0.46513918940070587,-0.03759686926529784,-0.48161833664361237,-0.741805761445503,"(0.0, 0.0, 0.0, 0.0, 0.0, 0.0, 0.0, 0.0, 0.0)",-2.5,5.875,0.1875,"(0.0, 0.0, 0.0, 0.0, 0.0, 0.0, 0.0, 0.0, 0.0)",0.5087890625,0.6826171875,0.5673828125,"(0.0, 0.0, 0.0, 0.0, 0.0, 0.0, 0.0, 0.0, 0.0)"
2022/11/28/22:58:36.455499,2653,1669697916,455199718,RU_myo,0.46616297931197315,-0.037107500840754086,-0.4803224204222609,-0.7420279526675791,"(0.0, 0.0, 0.0, 0.0, 0.0, 0.0, 0.0, 0.0, 0.0)",-3.0,7.625,2.125,"(0.0, 0.0, 0.0, 0.0, 0.0, 0.0, 0.0, 0.0, 0.0)",0.51904296875,0.681640625,0.57470703125,"(0.0, 0.0, 0.0, 0.0, 0.0, 0.0, 0.0, 0.0, 0.0)"
2022/11/28/22:58:36.478971,2654,1669697916,478624820,RU_myo,0.46746290074181523,-0.03625446703755559,-0.47851013733069997,-0.7424231263380912,"(0.0, 0.0, 0.0, 0.0, 0.0, 0.0, 0.0, 0.0, 0.0)",-4.4375,10.6875,2.5,"(0.0, 0.0, 0.0, 0.0, 0.0, 0.0, 0.0, 0.0, 0.0)",0.517578125,0.70166015625,0.599609375,"(0.0, 0.0, 0.0, 0.0, 0.0, 0.0, 0.0, 0.0, 0.0)"
2022/11/28/22:58:36.501626,2655,1669697916,500988960,RU_myo,0.46892708310582476,-0.03436235165802152,-0.47588500155878116,-0.7432765870184477,"(0.0, 0.0, 0.0, 0.0, 0.0, 0.0, 0.0, 0.0, 0.0)",-5.875,15.875,1.25,"(0.0, 0.0, 0.0, 0.0, 0.0, 0.0, 0.0, 0.0, 0.0)",0.49853515625,0.7353515625,0.638671875,"(0.0, 0.0, 0.0, 0.0, 0.0, 0.0, 0.0, 0.0, 0.0)"
2022/11/28/22:58:36.522164,2656,1669697916,521691083,RU_myo,0.4704430076448079,-0.03210340192282939,-0.4717857354818844,-0.7450308503269552,"(0.0, 0.0, 0.0, 0.0, 0.0, 0.0, 0.0, 0.0, 0.0)",-11.9375,19.875,-0.9375,"(0.0, 0.0, 0.0, 0.0, 0.0, 0.0, 0.0, 0.0, 0.0)",0.48583984375,0.740234375,0.6953125,"(0.0, 0.0, 0.0, 0.0, 0.0, 0.0, 0.0, 0.0, 0.0)"
2022/11/28/22:58:36.538556,2657,1669697916,538236618,RU_myo,0.4721603341573419,-0.028930196275928133,-0.46685036142315256,-0.7471803012867346,"(0.0, 0.0, 0.0, 0.0, 0.0, 0.0, 0.0, 0.0, 0.0)",-13.375,27.25,-4.6875,"(0.0, 0.0, 0.0, 0.0, 0.0, 0.0, 0.0, 0.0, 0.0)",0.50634765625,0.7509765625,0.72607421875,"(0.0, 0.0, 0.0, 0.0, 0.0, 0.0, 0.0, 0.0, 0.0)"
2022/11/28/22:58:36.561080,2658,1669697916,560721397,RU_myo,0.47479853498096614,-0.025268876909901015,-0.46039405442363124,-0.7496433483270634,"(0.0, 0.0, 0.0, 0.0, 0.0, 0.0, 0.0, 0.0, 0.0)",-17.875,36.1875,-4.0,"(0.0, 0.0, 0.0, 0.0, 0.0, 0.0, 0.0, 0.0, 0.0)",0.51416015625,0.7265625,0.751953125,"(0.0, 0.0, 0.0, 0.0, 0.0, 0.0, 0.0, 0.0, 0.0)"
2022/11/28/22:58:36.582221,2659,1669697916,581779241,RU_myo,0.4784387996099908,-0.021178500250627223,-0.45243868114668473,-0.7522945074617613,"(0.0, 0.0, 0.0, 0.0, 0.0, 0.0, 0.0, 0.0, 0.0)",-23.125,44.625,-1.1875,"(0.0, 0.0, 0.0, 0.0, 0.0, 0.0, 0.0, 0.0, 0.0)",0.49462890625,0.7041015625,0.7646484375,"(0.0, 0.0, 0.0, 0.0, 0.0, 0.0, 0.0, 0.0, 0.0)"
2022/11/28/22:58:36.598979,2660,1669697916,598533153,RU_myo,0.4830936306500141,-0.016845715989817295,-0.4427493615584589,-0.7551885650072804,"(0.0, 0.0, 0.0, 0.0, 0.0, 0.0, 0.0, 0.0, 0.0)",-30.1875,54.1875,0.75,"(0.0, 0.0, 0.0, 0.0, 0.0, 0.0, 0.0, 0.0, 0.0)",0.5029296875,0.68017578125,0.78515625,"(0.0, 0.0, 0.0, 0.0, 0.0, 0.0, 0.0, 0.0, 0.0)"
2022/11/28/22:58:36.621181,2661,1669697916,620851516,RU_myo,0.4883992775577931,-0.010986237185753906,-0.43273567581663996,-0.7576841579108277,"(0.0, 0.0, 0.0, 0.0, 0.0, 0.0, 0.0, 0.0, 0.0)",-24.9375,61.5625,1.5625,"(0.0, 0.0, 0.0, 0.0, 0.0, 0.0, 0.0, 0.0, 0.0)",0.48583984375,0.70361328125,0.853515625,"(0.0, 0.0, 0.0, 0.0, 0.0, 0.0, 0.0, 0.0, 0.0)"
2022/11/28/22:58:36.642556,2662,1669697916,642023086,RU_myo,0.49383400967512525,-0.004638658353146647,-0.42358274961628595,-0.7593972003927708,"(0.0, 0.0, 0.0, 0.0, 0.0, 0.0, 0.0, 0.0, 0.0)",-20.1875,63.375,3.25,"(0.0, 0.0, 0.0, 0.0, 0.0, 0.0, 0.0, 0.0, 0.0)",0.45166015625,0.6611328125,0.79345703125,"(0.0, 0.0, 0.0, 0.0, 0.0, 0.0, 0.0, 0.0, 0.0)"
2022/11/28/22:58:36.658686,2663,1669697916,658392667,RU_myo,0.5010199302023622,-6.103300404462934e-05,-0.4114234802648464,-0.761386725456751,"(0.0, 0.0, 0.0, 0.0, 0.0, 0.0, 0.0, 0.0, 0.0)",-38.0625,72.5625,9.75,"(0.0, 0.0, 0.0, 0.0, 0.0, 0.0, 0.0, 0.0, 0.0)",0.4404296875,0.5078125,0.6865234375,"(0.0, 0.0, 0.0, 0.0, 0.0, 0.0, 0.0, 0.0, 0.0)"
2022/11/28/22:58:36.681988,2664,1669697916,681319713,RU_myo,0.5101401893033118,0.004516675521469859,-0.3970401927994788,-0.7629519461942329,"(0.0, 0.0, 0.0, 0.0, 0.0, 0.0, 0.0, 0.0, 0.0)",-43.4375,84.375,17.0625,"(0.0, 0.0, 0.0, 0.0, 0.0, 0.0, 0.0, 0.0, 0.0)",0.4599609375,0.4365234375,0.72314453125,"(0.0, 0.0, 0.0, 0.0, 0.0, 0.0, 0.0, 0.0, 0.0)"
2022/11/28/22:58:36.702557,2665,1669697916,701935052,RU_myo,0.519409186459825,0.012268066566207384,-0.3880615284972465,-0.7612304786753159,"(0.0, 0.0, 0.0, 0.0, 0.0, 0.0, 0.0, 0.0, 0.0)",-1.5625,81.5625,21.125,"(0.0, 0.0, 0.0, 0.0, 0.0, 0.0, 0.0, 0.0, 0.0)",0.4404296875,0.46044921875,0.80029296875,"(0.0, 0.0, 0.0, 0.0, 0.0, 0.0, 0.0, 0.0, 0.0)"
2022/11/28/22:58:36.718527,2666,1669697916,718233585,RU_myo,0.5305152638553866,0.0215453161690004,-0.38238358583225923,-0.7562222870649149,"(0.0, 0.0, 0.0, 0.0, 0.0, 0.0, 0.0, 0.0, 0.0)",25.1875,85.25,33.3125,"(0.0, 0.0, 0.0, 0.0, 0.0, 0.0, 0.0, 0.0, 0.0)",0.44970703125,0.39013671875,0.74267578125,"(0.0, 0.0, 0.0, 0.0, 0.0, 0.0, 0.0, 0.0, 0.0)"
2022/11/28/22:58:36.741343,2667,1669697916,740957975,RU_myo,0.5425890359247059,0.03271402961255819,-0.37907992149925174,-0.7488827301233004,"(0.0, 0.0, 0.0, 0.0, 0.0, 0.0, 0.0, 0.0, 0.0)",37.3125,92.75,42.1875,"(0.0, 0.0, 0.0, 0.0, 0.0, 0.0, 0.0, 0.0, 0.0)",0.46533203125,0.478515625,0.6416015625,"(0.0, 0.0, 0.0, 0.0, 0.0, 0.0, 0.0, 0.0, 0.0)"
2022/11/28/22:58:36.762240,2668,1669697916,761728525,RU_myo,0.5536506180349314,0.04589849683191141,-0.3777470703360369,-0.7407236137660597,"(0.0, 0.0, 0.0, 0.0, 0.0, 0.0, 0.0, 0.0, 0.0)",48.125,93.0,39.5625,"(0.0, 0.0, 0.0, 0.0, 0.0, 0.0, 0.0, 0.0, 0.0)",0.447265625,0.59765625,0.6357421875,"(0.0, 0.0, 0.0, 0.0, 0.0, 0.0, 0.0, 0.0, 0.0)"
2022/11/28/22:58:36.778813,2669,1669697916,778474807,RU_myo,0.564183086207068,0.05773660748073198,-0.3759593045256966,-0.7328154820519543,"(0.0, 0.0, 0.0, 0.0, 0.0, 0.0, 0.0, 0.0, 0.0)",41.0,86.875,39.875,"(0.0, 0.0, 0.0, 0.0, 0.0, 0.0, 0.0, 0.0, 0.0)",0.4111328125,0.58251953125,0.6025390625,"(0.0, 0.0, 0.0, 0.0, 0.0, 0.0, 0.0, 0.0, 0.0)"
2022/11/28/22:58:36.801480,2670,1669697916,801018953,RU_myo,0.5745799072936352,0.06793153142317994,-0.3737149747566314,-0.7249692095638197,"(0.0, 0.0, 0.0, 0.0, 0.0, 0.0, 0.0, 0.0, 0.0)",28.5,82.8125,43.75,"(0.0, 0.0, 0.0, 0.0, 0.0, 0.0, 0.0, 0.0, 0.0)",0.39013671875,0.61474609375,0.5078125,"(0.0, 0.0, 0.0, 0.0, 0.0, 0.0, 0.0, 0.0, 0.0)"
2022/11/28/22:58:36.822008,2671,1669697916,821667671,RU_myo,0.5842685918752276,0.07769496682932882,-0.3708363067203471,-0.7176866574596052,"(0.0, 0.0, 0.0, 0.0, 0.0, 0.0, 0.0, 0.0, 0.0)",19.3125,80.9375,41.3125,"(0.0, 0.0, 0.0, 0.0, 0.0, 0.0, 0.0, 0.0, 0.0)",0.37841796875,0.69482421875,0.51171875,"(0.0, 0.0, 0.0, 0.0, 0.0, 0.0, 0.0, 0.0, 0.0)"
2022/11/28/22:58:36.838865,2672,1669697916,838554382,RU_myo,0.5927676641065234,0.08611976668598686,-0.367550131100647,-0.7114188522266924,"(0.0, 0.0, 0.0, 0.0, 0.0, 0.0, 0.0, 0.0, 0.0)",14.125,72.6875,35.375,"(0.0, 0.0, 0.0, 0.0, 0.0, 0.0, 0.0, 0.0, 0.0)",0.36083984375,0.66259765625,0.52734375,"(0.0, 0.0, 0.0, 0.0, 0.0, 0.0, 0.0, 0.0, 0.0)"
2022/11/28/22:58:36.861758,2673,1669697916,861332416,RU_myo,0.6006300583519221,0.09258772467430808,-0.3653461568229454,-0.7051193033370344,"(0.0, 0.0, 0.0, 0.0, 0.0, 0.0, 0.0, 0.0, 0.0)",14.75,60.9375,35.6875,"(0.0, 0.0, 0.0, 0.0, 0.0, 0.0, 0.0, 0.0, 0.0)",0.37548828125,0.615234375,0.53515625,"(0.0, 0.0, 0.0, 0.0, 0.0, 0.0, 0.0, 0.0, 0.0)"
2022/11/28/22:58:36.882102,2674,1669697916,881683826,RU_myo,0.6070945053807238,0.09991089829177088,-0.3678454392208327,-0.6972401356659685,"(0.0, 0.0, 0.0, 0.0, 0.0, 0.0, 0.0, 0.0, 0.0)",37.375,46.75,36.6875,"(0.0, 0.0, 0.0, 0.0, 0.0, 0.0, 0.0, 0.0, 0.0)",0.3857421875,0.68310546875,0.5185546875,"(0.0, 0.0, 0.0, 0.0, 0.0, 0.0, 0.0, 0.0, 0.0)"
2022/11/28/22:58:36.898950,2675,1669697916,898545980,RU_myo,0.6119798213813978,0.10668602052205878,-0.37083767774143545,-0.6903464405749468,"(0.0, 0.0, 0.0, 0.0, 0.0, 0.0, 0.0, 0.0, 0.0)",33.5,37.8125,30.625,"(0.0, 0.0, 0.0, 0.0, 0.0, 0.0, 0.0, 0.0, 0.0)",0.36865234375,0.74853515625,0.51416015625,"(0.0, 0.0, 0.0, 0.0, 0.0, 0.0, 0.0, 0.0, 0.0)"
2022/11/28/22:58:36.921140,2676,1669697916,920859813,RU_myo,0.6155930308297463,0.1098008985190079,-0.37218781499105624,-0.6859046679025074,"(0.0, 0.0, 0.0, 0.0, 0.0, 0.0, 0.0, 0.0, 0.0)",8.625,25.0,24.25,"(0.0, 0.0, 0.0, 0.0, 0.0, 0.0, 0.0, 0.0, 0.0)",0.36181640625,0.7646484375,0.498046875,"(0.0, 0.0, 0.0, 0.0, 0.0, 0.0, 0.0, 0.0, 0.0)"
2022/11/28/22:58:36.942083,2677,1669697916,941659450,RU_myo,0.6187767860387758,0.10980266700372437,-0.3724989865056864,-0.682863945768576,"(0.0, 0.0, 0.0, 0.0, 0.0, 0.0, 0.0, 0.0, 0.0)",-2.3125,13.3125,21.4375,"(0.0, 0.0, 0.0, 0.0, 0.0, 0.0, 0.0, 0.0, 0.0)",0.38330078125,0.708984375,0.59326171875,"(0.0, 0.0, 0.0, 0.0, 0.0, 0.0, 0.0, 0.0, 0.0)"
2022/11/28/22:58:36.958617,2678,1669697916,958328485,RU_myo,0.6215873166139503,0.10955903705047533,-0.3733552254249346,-0.6798763864653175,"(0.0, 0.0, 0.0, 0.0, 0.0, 0.0, 0.0, 0.0, 0.0)",4.9375,7.6875,20.0625,"(0.0, 0.0, 0.0, 0.0, 0.0, 0.0, 0.0, 0.0, 0.0)",0.38037109375,0.66259765625,0.67236328125,"(0.0, 0.0, 0.0, 0.0, 0.0, 0.0, 0.0, 0.0, 0.0)"
2022/11/28/22:58:36.981366,2679,1669697916,980904102,RU_myo,0.6234561215520098,0.11077561043728809,-0.37590467475661565,-0.6765551744888918,"(0.0, 0.0, 0.0, 0.0, 0.0, 0.0, 0.0, 0.0, 0.0)",16.25,4.4375,17.0625,"(0.0, 0.0, 0.0, 0.0, 0.0, 0.0, 0.0, 0.0, 0.0)",0.35888671875,0.6884765625,0.658203125,"(0.0, 0.0, 0.0, 0.0, 0.0, 0.0, 0.0, 0.0, 0.0)"
2022/11/28/22:58:37.002174,2680,1669697917,1763105,RU_myo,0.6244727446870595,0.1117593192769041,-0.37855341242783136,-0.673974005164159,"(0.0, 0.0, 0.0, 0.0, 0.0, 0.0, 0.0, 0.0, 0.0)",12.9375,2.5,11.5625,"(0.0, 0.0, 0.0, 0.0, 0.0, 0.0, 0.0, 0.0, 0.0)",0.39208984375,0.734375,0.6484375,"(0.0, 0.0, 0.0, 0.0, 0.0, 0.0, 0.0, 0.0, 0.0)"
2022/11/28/22:58:37.019015,2681,1669697917,18596649,RU_myo,0.6245376444135583,0.11303075515038698,-0.3807769337922594,-0.6724475487294621,"(0.0, 0.0, 0.0, 0.0, 0.0, 0.0, 0.0, 0.0, 0.0)",8.8125,1.375,4.75,"(0.0, 0.0, 0.0, 0.0, 0.0, 0.0, 0.0, 0.0, 0.0)",0.3974609375,0.8251953125,0.70068359375,"(0.0, 0.0, 0.0, 0.0, 0.0, 0.0, 0.0, 0.0, 0.0)"
2022/11/28/22:58:37.041299,2682,1669697917,40700435,RU_myo,0.6251967270034965,0.11273438980527756,-0.38001316238638766,-0.6723168942637424,"(0.0, 0.0, 0.0, 0.0, 0.0, 0.0, 0.0, 0.0, 0.0)",-5.8125,4.375,2.5625,"(0.0, 0.0, 0.0, 0.0, 0.0, 0.0, 0.0, 0.0, 0.0)",0.3896484375,0.75830078125,0.76318359375,"(0.0, 0.0, 0.0, 0.0, 0.0, 0.0, 0.0, 0.0, 0.0)"
2022/11/28/22:58:37.062214,2683,1669697917,61825513,RU_myo,0.6265186483279899,0.11114373683441496,-0.37725394693768194,-0.672904831740486,"(0.0, 0.0, 0.0, 0.0, 0.0, 0.0, 0.0, 0.0, 0.0)",-15.5,6.1875,3.5,"(0.0, 0.0, 0.0, 0.0, 0.0, 0.0, 0.0, 0.0, 0.0)",0.3564453125,0.65771484375,0.76708984375,"(0.0, 0.0, 0.0, 0.0, 0.0, 0.0, 0.0, 0.0, 0.0)"
2022/11/28/22:58:37.078691,2684,1669697917,78417301,RU_myo,0.6274338916395531,0.1101671375884624,-0.3753617153291101,-0.6732707450073843,"(0.0, 0.0, 0.0, 0.0, 0.0, 0.0, 0.0, 0.0, 0.0)",-11.6875,5.8125,1.75,"(0.0, 0.0, 0.0, 0.0, 0.0, 0.0, 0.0, 0.0, 0.0)",0.357421875,0.6591796875,0.71826171875,"(0.0, 0.0, 0.0, 0.0, 0.0, 0.0, 0.0, 0.0, 0.0)"
2022/11/28/22:58:37.101198,2685,1669697917,100800275,RU_myo,0.6279709529169374,0.10937155677200426,-0.37395062965517306,-0.673684845786486,"(0.0, 0.0, 0.0, 0.0, 0.0, 0.0, 0.0, 0.0, 0.0)",-10.0625,4.125,0.3125,"(0.0, 0.0, 0.0, 0.0, 0.0, 0.0, 0.0, 0.0, 0.0)",0.35302734375,0.6591796875,0.7060546875,"(0.0, 0.0, 0.0, 0.0, 0.0, 0.0, 0.0, 0.0, 0.0)"
2022/11/28/22:58:37.122730,2686,1669697917,122019529,RU_myo,0.628468594892942,0.10845767632560531,-0.37236932091306585,-0.6742442039217569,"(0.0, 0.0, 0.0, 0.0, 0.0, 0.0, 0.0, 0.0, 0.0)",-8.6875,3.3125,-0.5,"(0.0, 0.0, 0.0, 0.0, 0.0, 0.0, 0.0, 0.0, 0.0)",0.3447265625,0.61767578125,0.72802734375,"(0.0, 0.0, 0.0, 0.0, 0.0, 0.0, 0.0, 0.0, 0.0)"
2022/11/28/22:58:37.137879,2687,1669697917,137580394,RU_myo,0.6289449590811715,0.10882182067362725,-0.37181297338403657,-0.6740483384854399,"(0.0, 0.0, 0.0, 0.0, 0.0, 0.0, 0.0, 0.0, 0.0)",2.4375,3.3125,0.6875,"(0.0, 0.0, 0.0, 0.0, 0.0, 0.0, 0.0, 0.0, 0.0)",0.31640625,0.609375,0.74169921875,"(0.0, 0.0, 0.0, 0.0, 0.0, 0.0, 0.0, 0.0, 0.0)"
2022/11/28/22:58:37.161283,2688,1669697917,160967111,RU_myo,0.6290367224299582,0.11004785664090964,-0.372563570125409,-0.6733488377495924,"(0.0, 0.0, 0.0, 0.0, 0.0, 0.0, 0.0, 0.0, 0.0)",9.5625,2.4375,0.5,"(0.0, 0.0, 0.0, 0.0, 0.0, 0.0, 0.0, 0.0, 0.0)",0.322265625,0.6376953125,0.7109375,"(0.0, 0.0, 0.0, 0.0, 0.0, 0.0, 0.0, 0.0, 0.0)"
2022/11/28/22:58:37.184198,2689,1669697917,183867692,RU_myo,0.6290828358405063,0.11041145338463917,-0.3727378362741799,-0.673149761956432,"(0.0, 0.0, 0.0, 0.0, 0.0, 0.0, 0.0, 0.0, 0.0)",3.625,0.875,-0.25,"(0.0, 0.0, 0.0, 0.0, 0.0, 0.0, 0.0, 0.0, 0.0)",0.32958984375,0.64208984375,0.72705078125,"(0.0, 0.0, 0.0, 0.0, 0.0, 0.0, 0.0, 0.0, 0.0)"
2022/11/28/22:58:37.199378,2690,1669697917,198568820,RU_myo,0.6294617054566031,0.11053574600813615,-0.37225704853872027,-0.6730412320440184,"(0.0, 0.0, 0.0, 0.0, 0.0, 0.0, 0.0, 0.0, 0.0)",1.3125,2.25,0.75,"(0.0, 0.0, 0.0, 0.0, 0.0, 0.0, 0.0, 0.0, 0.0)",0.3359375,0.6455078125,0.76904296875,"(0.0, 0.0, 0.0, 0.0, 0.0, 0.0, 0.0, 0.0, 0.0)"
2022/11/28/22:58:37.222257,2691,1669697917,220928192,RU_myo,0.6298394478388908,0.11096502724790226,-0.3720197145632367,-0.6727483665161599,"(0.0, 0.0, 0.0, 0.0, 0.0, 0.0, 0.0, 0.0, 0.0)",3.375,3.0,1.0625,"(0.0, 0.0, 0.0, 0.0, 0.0, 0.0, 0.0, 0.0, 0.0)",0.33203125,0.6484375,0.7529296875,"(0.0, 0.0, 0.0, 0.0, 0.0, 0.0, 0.0, 0.0, 0.0)"
2022/11/28/22:58:37.243740,2692,1669697917,243431329,RU_myo,0.6298208787246627,0.11102279081307893,-0.3720697816363547,-0.672728532348409,"(0.0, 0.0, 0.0, 0.0, 0.0, 0.0, 0.0, 0.0, 0.0)",-0.5,0.5625,0.3125,"(0.0, 0.0, 0.0, 0.0, 0.0, 0.0, 0.0, 0.0, 0.0)",0.3388671875,0.67236328125,0.7119140625,"(0.0, 0.0, 0.0, 0.0, 0.0, 0.0, 0.0, 0.0, 0.0)"
2022/11/28/22:58:37.259265,2693,1669697917,257988214,RU_myo,0.6300061044040891,0.10968038845322109,-0.37115550483251947,-0.6732801140943138,"(0.0, 0.0, 0.0, 0.0, 0.0, 0.0, 0.0, 0.0, 0.0)",-9.375,-1.0,-0.3125,"(0.0, 0.0, 0.0, 0.0, 0.0, 0.0, 0.0, 0.0, 0.0)",0.34423828125,0.64453125,0.71435546875,"(0.0, 0.0, 0.0, 0.0, 0.0, 0.0, 0.0, 0.0, 0.0)"
2022/11/28/22:58:37.281260,2694,1669697917,280912399,RU_myo,0.6303091815847324,0.1083982866751704,-0.369689427022245,-0.6740102926542267,"(0.0, 0.0, 0.0, 0.0, 0.0, 0.0, 0.0, 0.0, 0.0)",-8.9375,0.375,-0.5625,"(0.0, 0.0, 0.0, 0.0, 0.0, 0.0, 0.0, 0.0, 0.0)",0.33837890625,0.62060546875,0.75537109375,"(0.0, 0.0, 0.0, 0.0, 0.0, 0.0, 0.0, 0.0, 0.0)"
2022/11/28/22:58:37.303710,2695,1669697917,303317785,RU_myo,0.6308020445046699,0.10784975448860684,-0.36877657986426854,-0.6741372599471774,"(0.0, 0.0, 0.0, 0.0, 0.0, 0.0, 0.0, 0.0, 0.0)",-3.375,2.3125,0.5,"(0.0, 0.0, 0.0, 0.0, 0.0, 0.0, 0.0, 0.0, 0.0)",0.3388671875,0.6162109375,0.74951171875,"(0.0, 0.0, 0.0, 0.0, 0.0, 0.0, 0.0, 0.0, 0.0)"
2022/11/28/22:58:37.317851,2696,1669697917,317447423,RU_myo,0.6310608047055358,0.10766914203506772,-0.3683578640485452,-0.6741528762909994,"(0.0, 0.0, 0.0, 0.0, 0.0, 0.0, 0.0, 0.0, 0.0)",-2.0,1.875,0.1875,"(0.0, 0.0, 0.0, 0.0, 0.0, 0.0, 0.0, 0.0, 0.0)",0.3447265625,0.640625,0.72607421875,"(0.0, 0.0, 0.0, 0.0, 0.0, 0.0, 0.0, 0.0, 0.0)"
2022/11/28/22:58:37.341288,2697,1669697917,340865850,RU_myo,0.6310964743666481,0.10705446963627667,-0.36785478249591763,-0.6744919862887648,"(0.0, 0.0, 0.0, 0.0, 0.0, 0.0, 0.0, 0.0, 0.0)",-5.25,-0.1875,-0.5625,"(0.0, 0.0, 0.0, 0.0, 0.0, 0.0, 0.0, 0.0, 0.0)",0.33251953125,0.64990234375,0.71875,"(0.0, 0.0, 0.0, 0.0, 0.0, 0.0, 0.0, 0.0, 0.0)"
2022/11/28/22:58:37.364321,2698,1669697917,363727092,RU_myo,0.6312128905798291,0.10601593414592565,-0.36650874182284604,-0.6752793870987458,"(0.0, 0.0, 0.0, 0.0, 0.0, 0.0, 0.0, 0.0, 0.0)",-8.9375,0.375,-1.4375,"(0.0, 0.0, 0.0, 0.0, 0.0, 0.0, 0.0, 0.0, 0.0)",0.33056640625,0.62060546875,0.7373046875,"(0.0, 0.0, 0.0, 0.0, 0.0, 0.0, 0.0, 0.0, 0.0)"
2022/11/28/22:58:37.377981,2699,1669697917,377658605,RU_myo,0.631221062878652,0.10491868179156862,-0.3657810703763064,-0.6758374423956017,"(0.0, 0.0, 0.0, 0.0, 0.0, 0.0, 0.0, 0.0, 0.0)",-7.0625,-0.6875,-1.625,"(0.0, 0.0, 0.0, 0.0, 0.0, 0.0, 0.0, 0.0, 0.0)",0.34912109375,0.61328125,0.72021484375,"(0.0, 0.0, 0.0, 0.0, 0.0, 0.0, 0.0, 0.0, 0.0)"
2022/11/28/22:58:37.401889,2700,1669697917,400673389,RU_myo,0.6309014142158843,0.10400077486929156,-0.3658337116000784,-0.6762491699247362,"(0.0, 0.0, 0.0, 0.0, 0.0, 0.0, 0.0, 0.0, 0.0)",-4.625,-2.6875,-2.1875,"(0.0, 0.0, 0.0, 0.0, 0.0, 0.0, 0.0, 0.0, 0.0)",0.359375,0.64697265625,0.71484375,"(0.0, 0.0, 0.0, 0.0, 0.0, 0.0, 0.0, 0.0, 0.0)"
2022/11/28/22:58:37.423852,2701,1669697917,423524379,RU_myo,0.6302362725936924,0.10302525935872096,-0.36577629107631204,-0.6770492903236325,"(0.0, 0.0, 0.0, 0.0, 0.0, 0.0, 0.0, 0.0, 0.0)",-6.4375,-4.0625,-4.375,"(0.0, 0.0, 0.0, 0.0, 0.0, 0.0, 0.0, 0.0, 0.0)",0.3544921875,0.6552734375,0.71728515625,"(0.0, 0.0, 0.0, 0.0, 0.0, 0.0, 0.0, 0.0, 0.0)"
2022/11/28/22:58:37.439003,2702,1669697917,438648223,RU_myo,0.6289535422373641,0.10137717939410595,-0.3659588005099695,-0.6783909385704321,"(0.0, 0.0, 0.0, 0.0, 0.0, 0.0, 0.0, 0.0, 0.0)",-10.5,-6.9375,-8.1875,"(0.0, 0.0, 0.0, 0.0, 0.0, 0.0, 0.0, 0.0, 0.0)",0.37841796875,0.65087890625,0.67041015625,"(0.0, 0.0, 0.0, 0.0, 0.0, 0.0, 0.0, 0.0, 0.0)"
2022/11/28/22:58:37.461130,2703,1669697917,460763216,RU_myo,0.6269327153421164,0.0992399333281037,-0.3666262481561617,-0.6802146721658768,"(0.0, 0.0, 0.0, 0.0, 0.0, 0.0, 0.0, 0.0, 0.0)",-11.1875,-10.9375,-12.1875,"(0.0, 0.0, 0.0, 0.0, 0.0, 0.0, 0.0, 0.0, 0.0)",0.404296875,0.65380859375,0.66455078125,"(0.0, 0.0, 0.0, 0.0, 0.0, 0.0, 0.0, 0.0, 0.0)"
2022/11/28/22:58:37.484278,2704,1669697917,483609437,RU_myo,0.6239656159083745,0.09790089483684171,-0.3685932069324732,-0.6820713839162756,"(0.0, 0.0, 0.0, 0.0, 0.0, 0.0, 0.0, 0.0, 0.0)",-5.1875,-15.1875,-15.75,"(0.0, 0.0, 0.0, 0.0, 0.0, 0.0, 0.0, 0.0, 0.0)",0.3740234375,0.6650390625,0.6240234375,"(0.0, 0.0, 0.0, 0.0, 0.0, 0.0, 0.0, 0.0, 0.0)"
2022/11/28/22:58:37.505031,2705,1669697917,504498720,RU_myo,0.6193634280028988,0.09594396027005882,-0.37181336257328135,-0.6847908614695037,"(0.0, 0.0, 0.0, 0.0, 0.0, 0.0, 0.0, 0.0, 0.0)",-7.5625,-26.6875,-20.375,"(0.0, 0.0, 0.0, 0.0, 0.0, 0.0, 0.0, 0.0, 0.0)",0.33154296875,0.69921875,0.5556640625,"(0.0, 0.0, 0.0, 0.0, 0.0, 0.0, 0.0, 0.0, 0.0)"
2022/11/28/22:58:37.527542,2706,1669697917,526749849,RU_myo,0.6124269175152847,0.09155275824924526,-0.37622080123223184,-0.6892091641003183,"(0.0, 0.0, 0.0, 0.0, 0.0, 0.0, 0.0, 0.0, 0.0)",-18.875,-43.625,-29.8125,"(0.0, 0.0, 0.0, 0.0, 0.0, 0.0, 0.0, 0.0, 0.0)",0.37353515625,0.7578125,0.50244140625,"(0.0, 0.0, 0.0, 0.0, 0.0, 0.0, 0.0, 0.0, 0.0)"
2022/11/28/22:58:37.544298,2707,1669697917,543805122,RU_myo,0.6031401581435772,0.0848985994715357,-0.3816469751944736,-0.6952407955285861,"(0.0, 0.0, 0.0, 0.0, 0.0, 0.0, 0.0, 0.0, 0.0)",-25.625,-61.9375,-38.9375,"(0.0, 0.0, 0.0, 0.0, 0.0, 0.0, 0.0, 0.0, 0.0)",0.37255859375,0.77490234375,0.50341796875,"(0.0, 0.0, 0.0, 0.0, 0.0, 0.0, 0.0, 0.0, 0.0)"
2022/11/28/22:58:37.564691,2708,1669697917,564220666,RU_myo,0.5921500137364533,0.07678053156879594,-0.38768675399442915,-0.7022550049527553,"(0.0, 0.0, 0.0, 0.0, 0.0, 0.0, 0.0, 0.0, 0.0)",-27.0625,-75.4375,-45.4375,"(0.0, 0.0, 0.0, 0.0, 0.0, 0.0, 0.0, 0.0, 0.0)",0.37646484375,0.76220703125,0.53173828125,"(0.0, 0.0, 0.0, 0.0, 0.0, 0.0, 0.0, 0.0, 0.0)"
2022/11/28/22:58:37.581228,2709,1669697917,580874919,RU_myo,0.5797103872347472,0.067931949988658,-0.39361468596303273,-0.7102032076082879,"(0.0, 0.0, 0.0, 0.0, 0.0, 0.0, 0.0, 0.0, 0.0)",-29.625,-82.9375,-53.25,"(0.0, 0.0, 0.0, 0.0, 0.0, 0.0, 0.0, 0.0, 0.0)",0.38671875,0.76220703125,0.5673828125,"(0.0, 0.0, 0.0, 0.0, 0.0, 0.0, 0.0, 0.0, 0.0)"
2022/11/28/22:58:37.603939,2710,1669697917,603374958,RU_myo,0.5649318349055198,0.0581044843161252,-0.40001763677298796,-0.7193481640229533,"(0.0, 0.0, 0.0, 0.0, 0.0, 0.0, 0.0, 0.0, 0.0)",-34.6875,-93.75,-62.9375,"(0.0, 0.0, 0.0, 0.0, 0.0, 0.0, 0.0, 0.0, 0.0)",0.38134765625,0.787109375,0.53515625,"(0.0, 0.0, 0.0, 0.0, 0.0, 0.0, 0.0, 0.0, 0.0)"
2022/11/28/22:58:37.624580,2711,1669697917,624150753,RU_myo,0.5488229953107979,0.0456538701615299,-0.4053306841480215,-0.7296684729693717,"(0.0, 0.0, 0.0, 0.0, 0.0, 0.0, 0.0, 0.0, 0.0)",-39.5,-107.25,-69.125,"(0.0, 0.0, 0.0, 0.0, 0.0, 0.0, 0.0, 0.0, 0.0)",0.421875,0.755859375,0.5078125,"(0.0, 0.0, 0.0, 0.0, 0.0, 0.0, 0.0, 0.0, 0.0)"
2022/11/28/22:58:37.641438,2712,1669697917,641050815,RU_myo,0.5311439630556584,0.031556128349778834,-0.41175559351568275,-0.7398294617556465,"(0.0, 0.0, 0.0, 0.0, 0.0, 0.0, 0.0, 0.0, 0.0)",-38.8125,-120.75,-72.5,"(0.0, 0.0, 0.0, 0.0, 0.0, 0.0, 0.0, 0.0, 0.0)",0.47802734375,0.66650390625,0.474609375,"(0.0, 0.0, 0.0, 0.0, 0.0, 0.0, 0.0, 0.0, 0.0)"
2022/11/28/22:58:37.664434,2713,1669697917,663774251,RU_myo,0.512503216577772,0.01696747578999888,-0.42021967918756226,-0.748644093669519,"(0.0, 0.0, 0.0, 0.0, 0.0, 0.0, 0.0, 0.0, 0.0)",-27.1875,-130.6875,-71.5625,"(0.0, 0.0, 0.0, 0.0, 0.0, 0.0, 0.0, 0.0, 0.0)",0.53515625,0.61474609375,0.50390625,"(0.0, 0.0, 0.0, 0.0, 0.0, 0.0, 0.0, 0.0, 0.0)"
2022/11/28/22:58:37.685006,2714,1669697917,684323310,RU_myo,0.4934112461091458,0.0023803857741534745,-0.4316432870464967,-0.7551316102006868,"(0.0, 0.0, 0.0, 0.0, 0.0, 0.0, 0.0, 0.0, 0.0)",-7.8125,-140.75,-67.0,"(0.0, 0.0, 0.0, 0.0, 0.0, 0.0, 0.0, 0.0, 0.0)",0.55615234375,0.58935546875,0.5380859375,"(0.0, 0.0, 0.0, 0.0, 0.0, 0.0, 0.0, 0.0, 0.0)"
2022/11/28/22:58:37.702018,2715,1669697917,701533794,RU_myo,0.4741668550120306,-0.012816969951412849,-0.44505402326525,-0.7595580525968234,"(0.0, 0.0, 0.0, 0.0, 0.0, 0.0, 0.0, 0.0, 0.0)",4.5625,-150.0,-59.75,"(0.0, 0.0, 0.0, 0.0, 0.0, 0.0, 0.0, 0.0, 0.0)",0.54736328125,0.59765625,0.54541015625,"(0.0, 0.0, 0.0, 0.0, 0.0, 0.0, 0.0, 0.0, 0.0)"
2022/11/28/22:58:37.723719,2716,1669697917,723379850,RU_myo,0.45518832126764125,-0.029418177909761745,-0.45885033511532947,-0.762492316652808,"(0.0, 0.0, 0.0, 0.0, 0.0, 0.0, 0.0, 0.0, 0.0)",6.25,-156.5625,-51.1875,"(0.0, 0.0, 0.0, 0.0, 0.0, 0.0, 0.0, 0.0, 0.0)",0.58935546875,0.61181640625,0.57177734375,"(0.0, 0.0, 0.0, 0.0, 0.0, 0.0, 0.0, 0.0, 0.0)"
2022/11/28/22:58:37.744928,2717,1669697917,744212150,RU_myo,0.43644297842593094,-0.04742220587847131,-0.4710483719048154,-0.7651026678153363,"(0.0, 0.0, 0.0, 0.0, 0.0, 0.0, 0.0, 0.0, 0.0)",-2.0625,-158.6875,-45.5,"(0.0, 0.0, 0.0, 0.0, 0.0, 0.0, 0.0, 0.0, 0.0)",0.59130859375,0.58935546875,0.59423828125,"(0.0, 0.0, 0.0, 0.0, 0.0, 0.0, 0.0, 0.0, 0.0)"
2022/11/28/22:58:37.761180,2718,1669697917,760871887,RU_myo,0.4193607622810467,-0.06713678336619872,-0.48057730202313514,-0.7672513669968036,"(0.0, 0.0, 0.0, 0.0, 0.0, 0.0, 0.0, 0.0, 0.0)",-15.875,-155.8125,-31.3125,"(0.0, 0.0, 0.0, 0.0, 0.0, 0.0, 0.0, 0.0, 0.0)",0.5673828125,0.54150390625,0.591796875,"(0.0, 0.0, 0.0, 0.0, 0.0, 0.0, 0.0, 0.0, 0.0)"
2022/11/28/22:58:37.783946,2719,1669697917,783321380,RU_myo,0.40356408629718304,-0.08898917692397049,-0.48706010415177264,-0.7694084803179506,"(0.0, 0.0, 0.0, 0.0, 0.0, 0.0, 0.0, 0.0, 0.0)",-34.3125,-153.9375,-19.375,"(0.0, 0.0, 0.0, 0.0, 0.0, 0.0, 0.0, 0.0, 0.0)",0.6259765625,0.5576171875,0.5673828125,"(0.0, 0.0, 0.0, 0.0, 0.0, 0.0, 0.0, 0.0, 0.0)"
2022/11/28/22:58:37.804609,2720,1669697917,804183721,RU_myo,0.38705971392035365,-0.11278561200328185,-0.4905685872740149,-0.7725326172822196,"(0.0, 0.0, 0.0, 0.0, 0.0, 0.0, 0.0, 0.0, 0.0)",-54.6875,-157.6875,-17.5,"(0.0, 0.0, 0.0, 0.0, 0.0, 0.0, 0.0, 0.0, 0.0)",0.6455078125,0.552734375,0.5751953125,"(0.0, 0.0, 0.0, 0.0, 0.0, 0.0, 0.0, 0.0, 0.0)"
2022/11/28/22:58:37.821405,2721,1669697917,821042776,RU_myo,0.36943784881786446,-0.136044434993395,-0.4930924137782136,-0.7758011723647572,"(0.0, 0.0, 0.0, 0.0, 0.0, 0.0, 0.0, 0.0, 0.0)",-58.6875,-157.3125,-23.0,"(0.0, 0.0, 0.0, 0.0, 0.0, 0.0, 0.0, 0.0, 0.0)",0.5869140625,0.51513671875,0.59375,"(0.0, 0.0, 0.0, 0.0, 0.0, 0.0, 0.0, 0.0, 0.0)"
2022/11/28/22:58:37.843979,2722,1669697917,843629360,RU_myo,0.3538736613645064,-0.15789430181958916,-0.4964484928490678,-0.7767764898561699,"(0.0, 0.0, 0.0, 0.0, 0.0, 0.0, 0.0, 0.0, 0.0)",-42.1875,-149.6875,-14.1875,"(0.0, 0.0, 0.0, 0.0, 0.0, 0.0, 0.0, 0.0, 0.0)",0.60205078125,0.47265625,0.65625,"(0.0, 0.0, 0.0, 0.0, 0.0, 0.0, 0.0, 0.0, 0.0)"
2022/11/28/22:58:37.864858,2723,1669697917,864259004,RU_myo,0.3425207083002363,-0.17711958223223195,-0.5011471018982965,-0.7746998129819849,"(0.0, 0.0, 0.0, 0.0, 0.0, 0.0, 0.0, 0.0, 0.0)",-18.25,-131.25,1.1875,"(0.0, 0.0, 0.0, 0.0, 0.0, 0.0, 0.0, 0.0, 0.0)",0.66015625,0.43505859375,0.66357421875,"(0.0, 0.0, 0.0, 0.0, 0.0, 0.0, 0.0, 0.0, 0.0)"
2022/11/28/22:58:37.881327,2724,1669697917,880943536,RU_myo,0.33475684331430194,-0.19377447174528872,-0.5072924123297133,-0.7700933179471033,"(0.0, 0.0, 0.0, 0.0, 0.0, 0.0, 0.0, 0.0, 0.0)",3.0625,-113.9375,13.25,"(0.0, 0.0, 0.0, 0.0, 0.0, 0.0, 0.0, 0.0, 0.0)",0.7529296875,0.48095703125,0.56689453125,"(0.0, 0.0, 0.0, 0.0, 0.0, 0.0, 0.0, 0.0, 0.0)"
2022/11/28/22:58:37.911531,2725,1669697917,911057472,RU_myo,0.3268851734025486,-0.2073853284581516,-0.5171816578441367,-0.7633220432684232,"(0.0, 0.0, 0.0, 0.0, 0.0, 0.0, 0.0, 0.0, 0.0)",31.875,-112.125,5.25,"(0.0, 0.0, 0.0, 0.0, 0.0, 0.0, 0.0, 0.0, 0.0)",0.62158203125,0.484375,0.58447265625,"(0.0, 0.0, 0.0, 0.0, 0.0, 0.0, 0.0, 0.0, 0.0)"
2022/11/28/22:58:37.924931,2726,1669697917,924215793,RU_myo,0.3218186515401544,-0.21928587426204715,-0.5300578396787864,-0.7532497245038091,"(0.0, 0.0, 0.0, 0.0, 0.0, 0.0, 0.0, 0.0, 0.0)",63.25,-106.875,13.75,"(0.0, 0.0, 0.0, 0.0, 0.0, 0.0, 0.0, 0.0, 0.0)",0.57861328125,0.29931640625,0.63232421875,"(0.0, 0.0, 0.0, 0.0, 0.0, 0.0, 0.0, 0.0, 0.0)"
2022/11/28/22:58:37.941133,2727,1669697917,940844535,RU_myo,0.3226722962945257,-0.23033199285332703,-0.546901162681151,-0.7373797397069151,"(0.0, 0.0, 0.0, 0.0, 0.0, 0.0, 0.0, 0.0, 0.0)",107.125,-98.875,39.1875,"(0.0, 0.0, 0.0, 0.0, 0.0, 0.0, 0.0, 0.0, 0.0)",0.61865234375,0.0791015625,0.5009765625,"(0.0, 0.0, 0.0, 0.0, 0.0, 0.0, 0.0, 0.0, 0.0)"
2022/11/28/22:58:37.964477,2728,1669697917,964070320,RU_myo,0.3301916255980606,-0.24077744232612736,-0.5678563557420251,-0.7145200297368753,"(0.0, 0.0, 0.0, 0.0, 0.0, 0.0, 0.0, 0.0, 0.0)",155.0625,-91.125,70.625,"(0.0, 0.0, 0.0, 0.0, 0.0, 0.0, 0.0, 0.0, 0.0)",0.82177734375,0.04736328125,0.41259765625,"(0.0, 0.0, 0.0, 0.0, 0.0, 0.0, 0.0, 0.0, 0.0)"
2022/11/28/22:58:37.986506,2729,1669697917,986138820,RU_myo,0.34459485097444215,-0.24865026972544763,-0.5907427493059911,-0.6858938957227738,"(0.0, 0.0, 0.0, 0.0, 0.0, 0.0, 0.0, 0.0, 0.0)",196.125,-70.5,100.625,"(0.0, 0.0, 0.0, 0.0, 0.0, 0.0, 0.0, 0.0, 0.0)",0.8740234375,0.2529296875,0.412109375,"(0.0, 0.0, 0.0, 0.0, 0.0, 0.0, 0.0, 0.0, 0.0)"
2022/11/28/22:58:38.001434,2730,1669697918,1034021,RU_myo,0.3633349200080011,-0.2548776458850013,-0.6118650383134908,-0.6547108494751936,"(0.0, 0.0, 0.0, 0.0, 0.0, 0.0, 0.0, 0.0, 0.0)",206.0625,-50.0625,122.4375,"(0.0, 0.0, 0.0, 0.0, 0.0, 0.0, 0.0, 0.0, 0.0)",0.8203125,0.37548828125,0.3486328125,"(0.0, 0.0, 0.0, 0.0, 0.0, 0.0, 0.0, 0.0, 0.0)"
2022/11/28/22:58:38.024427,2731,1669697918,23792266,RU_myo,0.38175124516311854,-0.2639606930983993,-0.6270363377787178,-0.6256326161738014,"(0.0, 0.0, 0.0, 0.0, 0.0, 0.0, 0.0, 0.0, 0.0)",168.3125,-44.875,135.5,"(0.0, 0.0, 0.0, 0.0, 0.0, 0.0, 0.0, 0.0, 0.0)",0.857421875,0.33544921875,0.1689453125,"(0.0, 0.0, 0.0, 0.0, 0.0, 0.0, 0.0, 0.0, 0.0)"
2022/11/28/22:58:38.045285,2732,1669697918,44629096,RU_myo,0.39982704641073813,-0.2755028678824717,-0.6377335991368955,-0.5979400967311863,"(0.0, 0.0, 0.0, 0.0, 0.0, 0.0, 0.0, 0.0, 0.0)",140.625,-42.1875,147.4375,"(0.0, 0.0, 0.0, 0.0, 0.0, 0.0, 0.0, 0.0, 0.0)",0.865234375,0.3310546875,0.0712890625,"(0.0, 0.0, 0.0, 0.0, 0.0, 0.0, 0.0, 0.0, 0.0)"
2022/11/28/22:58:38.060390,2733,1669697918,60060262,RU_myo,0.4204563343223295,-0.2863058011766654,-0.6471939278783542,-0.5677899953840371,"(0.0, 0.0, 0.0, 0.0, 0.0, 0.0, 0.0, 0.0, 0.0)",150.875,-31.5625,163.0625,"(0.0, 0.0, 0.0, 0.0, 0.0, 0.0, 0.0, 0.0, 0.0)",0.94482421875,0.46630859375,0.0478515625,"(0.0, 0.0, 0.0, 0.0, 0.0, 0.0, 0.0, 0.0, 0.0)"
2022/11/28/22:58:38.083729,2734,1669697918,83428144,RU_myo,0.44456302449128965,-0.2931406104656321,-0.6549431378110968,-0.5361732798127374,"(0.0, 0.0, 0.0, 0.0, 0.0, 0.0, 0.0, 0.0, 0.0)",166.375,-4.625,170.1875,"(0.0, 0.0, 0.0, 0.0, 0.0, 0.0, 0.0, 0.0, 0.0)",1.01220703125,0.67431640625,0.05419921875,"(0.0, 0.0, 0.0, 0.0, 0.0, 0.0, 0.0, 0.0, 0.0)"
2022/11/28/22:58:38.106960,2735,1669697918,106543540,RU_myo,0.47014402524679744,-0.2921692131450629,-0.6627669700318023,-0.5043230015077615,"(0.0, 0.0, 0.0, 0.0, 0.0, 0.0, 0.0, 0.0, 0.0)",189.5625,24.4375,142.3125,"(0.0, 0.0, 0.0, 0.0, 0.0, 0.0, 0.0, 0.0, 0.0)",1.14990234375,0.44091796875,0.009765625,"(0.0, 0.0, 0.0, 0.0, 0.0, 0.0, 0.0, 0.0, 0.0)"
2022/11/28/22:58:38.120708,2736,1669697918,120428323,RU_myo,0.5022968502113725,-0.28386180441471365,-0.6747134482486905,-0.4603065424415761,"(0.0, 0.0, 0.0, 0.0, 0.0, 0.0, 0.0, 0.0, 0.0)",279.0,38.1875,159.0,"(0.0, 0.0, 0.0, 0.0, 0.0, 0.0, 0.0, 0.0, 0.0)",1.17822265625,0.353515625,0.02880859375,"(0.0, 0.0, 0.0, 0.0, 0.0, 0.0, 0.0, 0.0, 0.0)"
2022/11/28/22:58:38.144085,2737,1669697918,143419504,RU_myo,0.5297108654371773,-0.2731254894378809,-0.6838207784719592,-0.4209489386934222,"(0.0, 0.0, 0.0, 0.0, 0.0, 0.0, 0.0, 0.0, 0.0)",252.0,44.75,132.25,"(0.0, 0.0, 0.0, 0.0, 0.0, 0.0, 0.0, 0.0, 0.0)",1.18505859375,0.53955078125,-0.14013671875,"(0.0, 0.0, 0.0, 0.0, 0.0, 0.0, 0.0, 0.0, 0.0)"
2022/11/28/22:58:38.166532,2738,1669697918,166208028,RU_myo,0.5525425317715793,-0.26464425248664175,-0.6869398205113361,-0.3908629596227984,"(0.0, 0.0, 0.0, 0.0, 0.0, 0.0, 0.0, 0.0, 0.0)",187.875,54.25,120.125,"(0.0, 0.0, 0.0, 0.0, 0.0, 0.0, 0.0, 0.0, 0.0)",1.1044921875,0.982421875,-0.17138671875,"(0.0, 0.0, 0.0, 0.0, 0.0, 0.0, 0.0, 0.0, 0.0)"
2022/11/28/22:58:38.180593,2739,1669697918,180269002,RU_myo,0.5687207395466094,-0.2653175632978226,-0.681329643223739,-0.3767668088883043,"(0.0, 0.0, 0.0, 0.0, 0.0, 0.0, 0.0, 0.0, 0.0)",65.875,59.5625,100.5625,"(0.0, 0.0, 0.0, 0.0, 0.0, 0.0, 0.0, 0.0, 0.0)",1.14306640625,0.75537109375,-0.15087890625,"(0.0, 0.0, 0.0, 0.0, 0.0, 0.0, 0.0, 0.0, 0.0)"
2022/11/28/22:58:38.204215,2740,1669697918,203623771,RU_myo,0.5817676271776916,-0.26335787990681275,-0.6786271765200118,-0.3628418530813446,"(0.0, 0.0, 0.0, 0.0, 0.0, 0.0, 0.0, 0.0, 0.0)",73.4375,50.1875,75.8125,"(0.0, 0.0, 0.0, 0.0, 0.0, 0.0, 0.0, 0.0, 0.0)",1.0517578125,0.27978515625,-0.169921875,"(0.0, 0.0, 0.0, 0.0, 0.0, 0.0, 0.0, 0.0, 0.0)"
2022/11/28/22:58:38.226395,2741,1669697918,225990772,RU_myo,0.5951349617458784,-0.25908603349515474,-0.6760039828014922,-0.3488659051727455,"(0.0, 0.0, 0.0, 0.0, 0.0, 0.0, 0.0, 0.0, 0.0)",83.375,44.5,54.125,"(0.0, 0.0, 0.0, 0.0, 0.0, 0.0, 0.0, 0.0, 0.0)",1.130859375,0.080078125,-0.001953125,"(0.0, 0.0, 0.0, 0.0, 0.0, 0.0, 0.0, 0.0, 0.0)"
2022/11/28/22:58:38.240546,2742,1669697918,240228652,RU_myo,0.6067429152151542,-0.25231618665118677,-0.6740638522921399,-0.3373981325127625,"(0.0, 0.0, 0.0, 0.0, 0.0, 0.0, 0.0, 0.0, 0.0)",81.125,51.375,55.0,"(0.0, 0.0, 0.0, 0.0, 0.0, 0.0, 0.0, 0.0, 0.0)",1.04736328125,0.39013671875,-0.08544921875,"(0.0, 0.0, 0.0, 0.0, 0.0, 0.0, 0.0, 0.0, 0.0)"
2022/11/28/22:58:38.263654,2743,1669697918,263270139,RU_myo,0.6167595703681167,-0.24316379300807292,-0.6740104834809612,-0.3258663380698046,"(0.0, 0.0, 0.0, 0.0, 0.0, 0.0, 0.0, 0.0, 0.0)",89.25,52.625,41.4375,"(0.0, 0.0, 0.0, 0.0, 0.0, 0.0, 0.0, 0.0, 0.0)",0.9697265625,0.3798828125,-0.21533203125,"(0.0, 0.0, 0.0, 0.0, 0.0, 0.0, 0.0, 0.0, 0.0)"
2022/11/28/22:58:38.286243,2744,1669697918,285903215,RU_myo,0.6245229048021801,-0.23657650303100566,-0.673596049393751,-0.3166560623645143,"(0.0, 0.0, 0.0, 0.0, 0.0, 0.0, 0.0, 0.0, 0.0)",67.75,41.125,27.5,"(0.0, 0.0, 0.0, 0.0, 0.0, 0.0, 0.0, 0.0, 0.0)",0.978515625,0.203125,-0.1640625,"(0.0, 0.0, 0.0, 0.0, 0.0, 0.0, 0.0, 0.0, 0.0)"
2022/11/28/22:58:38.300786,2745,1669697918,300377607,RU_myo,0.6294227262410147,-0.23161633337386314,-0.6739760657305852,-0.30973725741037034,"(0.0, 0.0, 0.0, 0.0, 0.0, 0.0, 0.0, 0.0, 0.0)",50.625,26.1875,13.5625,"(0.0, 0.0, 0.0, 0.0, 0.0, 0.0, 0.0, 0.0, 0.0)",1.0,0.11865234375,-0.14501953125,"(0.0, 0.0, 0.0, 0.0, 0.0, 0.0, 0.0, 0.0, 0.0)"
2022/11/28/22:58:38.323780,2746,1669697918,323406696,RU_myo,0.6327999931306157,-0.22820593888072652,-0.6743641130497853,-0.304498376324136,"(0.0, 0.0, 0.0, 0.0, 0.0, 0.0, 0.0, 0.0, 0.0)",36.9375,16.0,13.1875,"(0.0, 0.0, 0.0, 0.0, 0.0, 0.0, 0.0, 0.0, 0.0)",1.03466796875,0.1572265625,-0.09326171875,"(0.0, 0.0, 0.0, 0.0, 0.0, 0.0, 0.0, 0.0, 0.0)"
2022/11/28/22:58:38.347881,2747,1669697918,346469640,RU_myo,0.6355487285854202,-0.22570433096215156,-0.6744274897598093,-0.30047117937443807,"(0.0, 0.0, 0.0, 0.0, 0.0, 0.0, 0.0, 0.0, 0.0)",27.6875,13.75,10.8125,"(0.0, 0.0, 0.0, 0.0, 0.0, 0.0, 0.0, 0.0, 0.0)",1.0048828125,0.13330078125,-0.07275390625,"(0.0, 0.0, 0.0, 0.0, 0.0, 0.0, 0.0, 0.0, 0.0)"
