time,.header.seq,.header.stamp.secs,.header.stamp.nsecs,.header.frame_id,.orientation.x,.orientation.y,.orientation.z,.orientation.w,.orientation_covariance,.angular_velocity.x,.angular_velocity.y,.angular_velocity.z,.angular_velocity_covariance,.linear_acceleration.x,.linear_acceleration.y,.linear_acceleration.z,.linear_acceleration_covariance
2022/11/28/23:10:20.221311,12308,1669698620,220996379,RU_myo,0.6405075038122725,-0.004943882962530405,-0.6358077632182622,-0.43066713806931534,"(0.0, 0.0, 0.0, 0.0, 0.0, 0.0, 0.0, 0.0, 0.0)",178.8125,211.3125,-34.5625,"(0.0, 0.0, 0.0, 0.0, 0.0, 0.0, 0.0, 0.0, 0.0)",1.15576171875,0.01416015625,0.50927734375,"(0.0, 0.0, 0.0, 0.0, 0.0, 0.0, 0.0, 0.0, 0.0)"
2022/11/28/23:10:20.242600,12309,1669698620,242210149,RU_myo,0.6645249209384831,0.040342668326629076,-0.6269287277626836,-0.4046473388888816,"(0.0, 0.0, 0.0, 0.0, 0.0, 0.0, 0.0, 0.0, 0.0)",240.125,238.4375,-28.375,"(0.0, 0.0, 0.0, 0.0, 0.0, 0.0, 0.0, 0.0, 0.0)",1.6904296875,-0.1591796875,-0.00439453125,"(0.0, 0.0, 0.0, 0.0, 0.0, 0.0, 0.0, 0.0, 0.0)"
2022/11/28/23:10:20.260945,12310,1669698620,260015249,RU_myo,0.691714957348142,0.09588672002064158,-0.6110260688266346,-0.3728046377377968,"(0.0, 0.0, 0.0, 0.0, 0.0, 0.0, 0.0, 0.0, 0.0)",285.125,295.4375,-26.5625,"(0.0, 0.0, 0.0, 0.0, 0.0, 0.0, 0.0, 0.0, 0.0)",0.92236328125,0.13525390625,0.27490234375,"(0.0, 0.0, 0.0, 0.0, 0.0, 0.0, 0.0, 0.0, 0.0)"
2022/11/28/23:10:20.280775,12311,1669698620,280614852,RU_myo,0.714473534664435,0.1544180798480284,-0.5934414981669487,-0.33691217421388014,"(0.0, 0.0, 0.0, 0.0, 0.0, 0.0, 0.0, 0.0, 0.0)",308.9375,296.4375,-30.25,"(0.0, 0.0, 0.0, 0.0, 0.0, 0.0, 0.0, 0.0, 0.0)",0.83056640625,0.1962890625,0.171875,"(0.0, 0.0, 0.0, 0.0, 0.0, 0.0, 0.0, 0.0, 0.0)"
2022/11/28/23:10:20.302610,12312,1669698620,302221298,RU_myo,0.7287422704577862,0.21520479444172147,-0.5752425376101035,-0.3028491747078338,"(0.0, 0.0, 0.0, 0.0, 0.0, 0.0, 0.0, 0.0, 0.0)",315.625,274.75,-58.8125,"(0.0, 0.0, 0.0, 0.0, 0.0, 0.0, 0.0, 0.0, 0.0)",0.85595703125,0.55712890625,0.03369140625,"(0.0, 0.0, 0.0, 0.0, 0.0, 0.0, 0.0, 0.0, 0.0)"
2022/11/28/23:10:20.319216,12313,1669698620,318715572,RU_myo,0.7345129600275128,0.2694150079409541,-0.5574461412607009,-0.27777700524224785,"(0.0, 0.0, 0.0, 0.0, 0.0, 0.0, 0.0, 0.0, 0.0)",268.375,221.375,-84.125,"(0.0, 0.0, 0.0, 0.0, 0.0, 0.0, 0.0, 0.0, 0.0)",0.57177734375,0.74462890625,-0.0244140625,"(0.0, 0.0, 0.0, 0.0, 0.0, 0.0, 0.0, 0.0, 0.0)"
2022/11/28/23:10:20.341956,12314,1669698620,341600656,RU_myo,0.7416399932458558,0.3094489972641338,-0.537293791502203,-0.25598206992618877,"(0.0, 0.0, 0.0, 0.0, 0.0, 0.0, 0.0, 0.0, 0.0)",194.5625,208.8125,-65.875,"(0.0, 0.0, 0.0, 0.0, 0.0, 0.0, 0.0, 0.0, 0.0)",1.1044921875,0.37158203125,0.087890625,"(0.0, 0.0, 0.0, 0.0, 0.0, 0.0, 0.0, 0.0, 0.0)"
2022/11/28/23:10:20.363026,12315,1669698620,362457275,RU_myo,0.7500020815146197,0.34222507088643167,-0.5162367842977419,-0.23211734342448717,"(0.0, 0.0, 0.0, 0.0, 0.0, 0.0, 0.0, 0.0, 0.0)",163.875,210.625,-30.9375,"(0.0, 0.0, 0.0, 0.0, 0.0, 0.0, 0.0, 0.0, 0.0)",0.7861328125,0.31494140625,-0.1396484375,"(0.0, 0.0, 0.0, 0.0, 0.0, 0.0, 0.0, 0.0, 0.0)"
2022/11/28/23:10:20.379294,12316,1669698620,378937244,RU_myo,0.7534247722845299,0.3723178152086546,-0.4990279437944196,-0.2114276904725868,"(0.0, 0.0, 0.0, 0.0, 0.0, 0.0, 0.0, 0.0, 0.0)",155.8125,170.1875,-33.0,"(0.0, 0.0, 0.0, 0.0, 0.0, 0.0, 0.0, 0.0, 0.0)",0.65478515625,0.4892578125,-0.24169921875,"(0.0, 0.0, 0.0, 0.0, 0.0, 0.0, 0.0, 0.0, 0.0)"
2022/11/28/23:10:20.401837,12317,1669698620,401281356,RU_myo,0.7542184120892265,0.3996008694625043,-0.4846236296826461,-0.19134698728653599,"(0.0, 0.0, 0.0, 0.0, 0.0, 0.0, 0.0, 0.0, 0.0)",150.3125,145.125,-24.0,"(0.0, 0.0, 0.0, 0.0, 0.0, 0.0, 0.0, 0.0, 0.0)",0.662109375,0.58935546875,-0.25390625,"(0.0, 0.0, 0.0, 0.0, 0.0, 0.0, 0.0, 0.0, 0.0)"
2022/11/28/23:10:20.422931,12318,1669698620,422362089,RU_myo,0.7551273427350966,0.4214479713535275,-0.471985106803306,-0.1714478423652511,"(0.0, 0.0, 0.0, 0.0, 0.0, 0.0, 0.0, 0.0, 0.0)",129.5625,130.0625,-4.3125,"(0.0, 0.0, 0.0, 0.0, 0.0, 0.0, 0.0, 0.0, 0.0)",0.51806640625,0.54345703125,-0.17333984375,"(0.0, 0.0, 0.0, 0.0, 0.0, 0.0, 0.0, 0.0, 0.0)"
2022/11/28/23:10:20.439692,12319,1669698620,439185142,RU_myo,0.7554147788982277,0.4381967273521636,-0.4624901244111079,-0.15308502468299573,"(0.0, 0.0, 0.0, 0.0, 0.0, 0.0, 0.0, 0.0, 0.0)",106.8125,106.9375,9.8125,"(0.0, 0.0, 0.0, 0.0, 0.0, 0.0, 0.0, 0.0, 0.0)",0.45849609375,0.47314453125,-0.271484375,"(0.0, 0.0, 0.0, 0.0, 0.0, 0.0, 0.0, 0.0, 0.0)"
2022/11/28/23:10:20.461756,12320,1669698620,461185455,RU_myo,0.7518635711556056,0.4528394085406266,-0.45943149050886867,-0.1362363606770021,"(0.0, 0.0, 0.0, 0.0, 0.0, 0.0, 0.0, 0.0, 0.0)",93.125,73.875,23.25,"(0.0, 0.0, 0.0, 0.0, 0.0, 0.0, 0.0, 0.0, 0.0)",0.44921875,0.6181640625,-0.24267578125,"(0.0, 0.0, 0.0, 0.0, 0.0, 0.0, 0.0, 0.0, 0.0)"
2022/11/28/23:10:20.483055,12321,1669698620,482249021,RU_myo,0.7477005061329487,0.46430675511455843,-0.45863033494554906,-0.12256184622979273,"(0.0, 0.0, 0.0, 0.0, 0.0, 0.0, 0.0, 0.0, 0.0)",76.5625,50.4375,22.5625,"(0.0, 0.0, 0.0, 0.0, 0.0, 0.0, 0.0, 0.0, 0.0)",0.53662109375,0.73193359375,-0.19921875,"(0.0, 0.0, 0.0, 0.0, 0.0, 0.0, 0.0, 0.0, 0.0)"
2022/11/28/23:10:20.499593,12322,1669698620,499057054,RU_myo,0.7449225392889368,0.4705737630411883,-0.4594045025176426,-0.11224191313005775,"(0.0, 0.0, 0.0, 0.0, 0.0, 0.0, 0.0, 0.0, 0.0)",48.375,30.75,29.8125,"(0.0, 0.0, 0.0, 0.0, 0.0, 0.0, 0.0, 0.0, 0.0)",0.52880859375,0.78076171875,-0.11181640625,"(0.0, 0.0, 0.0, 0.0, 0.0, 0.0, 0.0, 0.0, 0.0)"
2022/11/28/23:10:20.521647,12323,1669698620,521339416,RU_myo,0.7437228626742605,0.47254020540206193,-0.461126485638411,-0.10461559184437279,"(0.0, 0.0, 0.0, 0.0, 0.0, 0.0, 0.0, 0.0, 0.0)",23.375,18.1875,29.625,"(0.0, 0.0, 0.0, 0.0, 0.0, 0.0, 0.0, 0.0, 0.0)",0.544921875,0.70849609375,-0.0537109375,"(0.0, 0.0, 0.0, 0.0, 0.0, 0.0, 0.0, 0.0, 0.0)"
2022/11/28/23:10:20.542771,12324,1669698620,542294263,RU_myo,0.7426940738496958,0.4723016718810771,-0.46424483281564644,-0.09906249850904472,"(0.0, 0.0, 0.0, 0.0, 0.0, 0.0, 0.0, 0.0, 0.0)",9.75,6.25,26.0625,"(0.0, 0.0, 0.0, 0.0, 0.0, 0.0, 0.0, 0.0, 0.0)",0.6279296875,0.68798828125,-0.04150390625,"(0.0, 0.0, 0.0, 0.0, 0.0, 0.0, 0.0, 0.0, 0.0)"
2022/11/28/23:10:20.559194,12325,1669698620,558825492,RU_myo,0.7412217106577754,0.4720527594060635,-0.4678412724136898,-0.09423965095978305,"(0.0, 0.0, 0.0, 0.0, 0.0, 0.0, 0.0, 0.0, 0.0)",9.5625,0.25,25.625,"(0.0, 0.0, 0.0, 0.0, 0.0, 0.0, 0.0, 0.0, 0.0)",0.68017578125,0.78466796875,-0.03125,"(0.0, 0.0, 0.0, 0.0, 0.0, 0.0, 0.0, 0.0, 0.0)"
2022/11/28/23:10:20.583616,12326,1669698620,582866191,RU_myo,0.7402478434270527,0.4710779069566287,-0.4710779069566287,-0.09057781989163474,"(0.0, 0.0, 0.0, 0.0, 0.0, 0.0, 0.0, 0.0, 0.0)",5.0,-2.6875,24.5625,"(0.0, 0.0, 0.0, 0.0, 0.0, 0.0, 0.0, 0.0, 0.0)",0.67041015625,0.8134765625,0.02197265625,"(0.0, 0.0, 0.0, 0.0, 0.0, 0.0, 0.0, 0.0, 0.0)"
2022/11/28/23:10:20.602227,12327,1669698620,601812124,RU_myo,0.740197542384431,0.46797184443485057,-0.4747469683075868,-0.08789349888955066,"(0.0, 0.0, 0.0, 0.0, 0.0, 0.0, 0.0, 0.0, 0.0)",-7.625,-6.5,24.5625,"(0.0, 0.0, 0.0, 0.0, 0.0, 0.0, 0.0, 0.0, 0.0)",0.6962890625,0.7587890625,0.04296875,"(0.0, 0.0, 0.0, 0.0, 0.0, 0.0, 0.0, 0.0, 0.0)"
2022/11/28/23:10:20.618398,12328,1669698620,618019819,RU_myo,0.7404882036581022,0.4653381194105977,-0.4770570227325855,-0.08691519963807597,"(0.0, 0.0, 0.0, 0.0, 0.0, 0.0, 0.0, 0.0, 0.0)",-9.0625,-7.0,16.25,"(0.0, 0.0, 0.0, 0.0, 0.0, 0.0, 0.0, 0.0, 0.0)",0.69189453125,0.82177734375,0.10595703125,"(0.0, 0.0, 0.0, 0.0, 0.0, 0.0, 0.0, 0.0, 0.0)"
2022/11/28/23:10:20.641291,12329,1669698620,640857934,RU_myo,0.7410843478464396,0.46270469782769386,-0.47863477646283803,-0.0872187063970155,"(0.0, 0.0, 0.0, 0.0, 0.0, 0.0, 0.0, 0.0, 0.0)",-12.4375,-7.5,10.75,"(0.0, 0.0, 0.0, 0.0, 0.0, 0.0, 0.0, 0.0, 0.0)",0.66796875,0.8232421875,0.1259765625,"(0.0, 0.0, 0.0, 0.0, 0.0, 0.0, 0.0, 0.0, 0.0)"
2022/11/28/23:10:20.662045,12330,1669698620,661584377,RU_myo,0.742225457580786,0.4592520018781113,-0.48006605459480933,-0.08789511997667203,"(0.0, 0.0, 0.0, 0.0, 0.0, 0.0, 0.0, 0.0, 0.0)",-16.375,-8.3125,8.3125,"(0.0, 0.0, 0.0, 0.0, 0.0, 0.0, 0.0, 0.0, 0.0)",0.66650390625,0.75146484375,0.16455078125,"(0.0, 0.0, 0.0, 0.0, 0.0, 0.0, 0.0, 0.0, 0.0)"
2022/11/28/23:10:20.678644,12331,1669698620,678231239,RU_myo,0.7430980292745685,0.45678403705058485,-0.4810148311057802,-0.08819520758125268,"(0.0, 0.0, 0.0, 0.0, 0.0, 0.0, 0.0, 0.0, 0.0)",-9.9375,-5.875,5.6875,"(0.0, 0.0, 0.0, 0.0, 0.0, 0.0, 0.0, 0.0, 0.0)",0.63427734375,0.7021484375,0.1689453125,"(0.0, 0.0, 0.0, 0.0, 0.0, 0.0, 0.0, 0.0, 0.0)"
2022/11/28/23:10:20.701044,12332,1669698620,700619220,RU_myo,0.742913836014144,0.4559899169291546,-0.48205171515278583,-0.08819507829776849,"(0.0, 0.0, 0.0, 0.0, 0.0, 0.0, 0.0, 0.0, 0.0)",-1.125,-6.0625,3.0625,"(0.0, 0.0, 0.0, 0.0, 0.0, 0.0, 0.0, 0.0, 0.0)",0.630859375,0.72021484375,0.13720703125,"(0.0, 0.0, 0.0, 0.0, 0.0, 0.0, 0.0, 0.0, 0.0)"
2022/11/28/23:10:20.721629,12333,1669698620,721215724,RU_myo,0.7421519422811919,0.4561924185056031,-0.4831098464639883,-0.08777156780988189,"(0.0, 0.0, 0.0, 0.0, 0.0, 0.0, 0.0, 0.0, 0.0)",5.3125,-5.875,3.0,"(0.0, 0.0, 0.0, 0.0, 0.0, 0.0, 0.0, 0.0, 0.0)",0.6455078125,0.76123046875,0.12841796875,"(0.0, 0.0, 0.0, 0.0, 0.0, 0.0, 0.0, 0.0, 0.0)"
2022/11/28/23:10:20.738669,12334,1669698620,738296985,RU_myo,0.7418233796588237,0.45587286676581823,-0.483949117764918,-0.08758569605153958,"(0.0, 0.0, 0.0, 0.0, 0.0, 0.0, 0.0, 0.0, 0.0)",1.875,-5.5,3.0,"(0.0, 0.0, 0.0, 0.0, 0.0, 0.0, 0.0, 0.0, 0.0)",0.64599609375,0.75,0.1416015625,"(0.0, 0.0, 0.0, 0.0, 0.0, 0.0, 0.0, 0.0, 0.0)"
2022/11/28/23:10:20.760819,12335,1669698620,760564327,RU_myo,0.742074198548739,0.45447314380604625,-0.4848690107971033,-0.08764752007863046,"(0.0, 0.0, 0.0, 0.0, 0.0, 0.0, 0.0, 0.0, 0.0)",-4.3125,-5.4375,3.6875,"(0.0, 0.0, 0.0, 0.0, 0.0, 0.0, 0.0, 0.0, 0.0)",0.65478515625,0.72412109375,0.14697265625,"(0.0, 0.0, 0.0, 0.0, 0.0, 0.0, 0.0, 0.0, 0.0)"
2022/11/28/23:10:20.778413,12336,1669698620,778124570,RU_myo,0.7423465329393899,0.4529034101636469,-0.48586403570116293,-0.08795603962881605,"(0.0, 0.0, 0.0, 0.0, 0.0, 0.0, 0.0, 0.0, 0.0)",-6.75,-5.5,3.375,"(0.0, 0.0, 0.0, 0.0, 0.0, 0.0, 0.0, 0.0, 0.0)",0.65478515625,0.72314453125,0.13330078125,"(0.0, 0.0, 0.0, 0.0, 0.0, 0.0, 0.0, 0.0, 0.0)"
2022/11/28/23:10:20.797515,12337,1669698620,797342300,RU_myo,0.7428195261166338,0.4513681508325807,-0.48652542667836385,-0.08819837430061922,"(0.0, 0.0, 0.0, 0.0, 0.0, 0.0, 0.0, 0.0, 0.0)",-5.75,-4.5,2.9375,"(0.0, 0.0, 0.0, 0.0, 0.0, 0.0, 0.0, 0.0, 0.0)",0.6689453125,0.73388671875,0.1552734375,"(0.0, 0.0, 0.0, 0.0, 0.0, 0.0, 0.0, 0.0, 0.0)"
2022/11/28/23:10:20.821054,12338,1669698620,820654153,RU_myo,0.7433596545339879,0.4498366576825265,-0.4871297645813086,-0.08813624609139326,"(0.0, 0.0, 0.0, 0.0, 0.0, 0.0, 0.0, 0.0, 0.0)",-4.875,-3.375,3.25,"(0.0, 0.0, 0.0, 0.0, 0.0, 0.0, 0.0, 0.0, 0.0)",0.66015625,0.708984375,0.1650390625,"(0.0, 0.0, 0.0, 0.0, 0.0, 0.0, 0.0, 0.0, 0.0)"
2022/11/28/23:10:20.842434,12339,1669698620,841847896,RU_myo,0.7438556936074732,0.4483764605924754,-0.4878062446304197,-0.08764886978094129,"(0.0, 0.0, 0.0, 0.0, 0.0, 0.0, 0.0, 0.0, 0.0)",-3.1875,-2.8125,4.5625,"(0.0, 0.0, 0.0, 0.0, 0.0, 0.0, 0.0, 0.0, 0.0)",0.66552734375,0.69140625,0.16015625,"(0.0, 0.0, 0.0, 0.0, 0.0, 0.0, 0.0, 0.0, 0.0)"
2022/11/28/23:10:20.860352,12340,1669698620,859956264,RU_myo,0.7439451840796991,0.44762441381905926,-0.4885783246007049,-0.08642434823667684,"(0.0, 0.0, 0.0, 0.0, 0.0, 0.0, 0.0, 0.0, 0.0)",2.0,-1.375,5.875,"(0.0, 0.0, 0.0, 0.0, 0.0, 0.0, 0.0, 0.0, 0.0)",0.6748046875,0.708984375,0.1513671875,"(0.0, 0.0, 0.0, 0.0, 0.0, 0.0, 0.0, 0.0, 0.0)"
2022/11/28/23:10:20.881045,12341,1669698620,880574703,RU_myo,0.7437869188881752,0.4475783256365492,-0.48902189349516323,-0.08551169156099897,"(0.0, 0.0, 0.0, 0.0, 0.0, 0.0, 0.0, 0.0, 0.0)",4.4375,-1.125,4.5,"(0.0, 0.0, 0.0, 0.0, 0.0, 0.0, 0.0, 0.0, 0.0)",0.66748046875,0.75439453125,0.15087890625,"(0.0, 0.0, 0.0, 0.0, 0.0, 0.0, 0.0, 0.0, 0.0)"
2022/11/28/23:10:20.901953,12342,1669698620,901415348,RU_myo,0.7439022818566778,0.44751325324689545,-0.48889541168952977,-0.08557195595364804,"(0.0, 0.0, 0.0, 0.0, 0.0, 0.0, 0.0, 0.0, 0.0)",-0.375,0.1875,0.4375,"(0.0, 0.0, 0.0, 0.0, 0.0, 0.0, 0.0, 0.0, 0.0)",0.6416015625,0.76953125,0.1748046875,"(0.0, 0.0, 0.0, 0.0, 0.0, 0.0, 0.0, 0.0, 0.0)"
2022/11/28/23:10:20.918493,12343,1669698620,918066501,RU_myo,0.7447617068389469,0.4469058529318775,-0.48786103284409954,-0.08715945888919982,"(0.0, 0.0, 0.0, 0.0, 0.0, 0.0, 0.0, 0.0, 0.0)",-7.0,-0.5,-5.6875,"(0.0, 0.0, 0.0, 0.0, 0.0, 0.0, 0.0, 0.0, 0.0)",0.66650390625,0.8095703125,0.185546875,"(0.0, 0.0, 0.0, 0.0, 0.0, 0.0, 0.0, 0.0, 0.0)"
2022/11/28/23:10:20.941308,12344,1669698620,940872669,RU_myo,0.7468823727074162,0.44500444385141547,-0.4857756643277213,-0.09033144656427032,"(0.0, 0.0, 0.0, 0.0, 0.0, 0.0, 0.0, 0.0, 0.0)",-20.9375,3.4375,-10.0625,"(0.0, 0.0, 0.0, 0.0, 0.0, 0.0, 0.0, 0.0, 0.0)",0.6904296875,0.8564453125,0.19873046875,"(0.0, 0.0, 0.0, 0.0, 0.0, 0.0, 0.0, 0.0, 0.0)"
2022/11/28/23:10:20.963700,12345,1669698620,963322639,RU_myo,0.7506910200984238,0.4426995665317398,-0.4810306471579542,-0.09533940754481975,"(0.0, 0.0, 0.0, 0.0, 0.0, 0.0, 0.0, 0.0, 0.0)",-32.0625,12.875,-23.3125,"(0.0, 0.0, 0.0, 0.0, 0.0, 0.0, 0.0, 0.0, 0.0)",0.67333984375,0.8447265625,0.234375,"(0.0, 0.0, 0.0, 0.0, 0.0, 0.0, 0.0, 0.0, 0.0)"
2022/11/28/23:10:20.978342,12346,1669698620,978063583,RU_myo,0.7542836543591015,0.4422062692856199,-0.47449434609060165,-0.10180815143801435,"(0.0, 0.0, 0.0, 0.0, 0.0, 0.0, 0.0, 0.0, 0.0)",-31.8125,20.1875,-38.25,"(0.0, 0.0, 0.0, 0.0, 0.0, 0.0, 0.0, 0.0, 0.0)",0.65771484375,0.8671875,0.197265625,"(0.0, 0.0, 0.0, 0.0, 0.0, 0.0, 0.0, 0.0, 0.0)"
2022/11/28/23:10:21.001156,12347,1669698621,699043,RU_myo,0.7576293070371927,0.44238276141187244,-0.4673461374352521,-0.10900877647373126,"(0.0, 0.0, 0.0, 0.0, 0.0, 0.0, 0.0, 0.0, 0.0)",-31.25,21.625,-47.1875,"(0.0, 0.0, 0.0, 0.0, 0.0, 0.0, 0.0, 0.0, 0.0)",0.6708984375,0.85546875,0.1962890625,"(0.0, 0.0, 0.0, 0.0, 0.0, 0.0, 0.0, 0.0, 0.0)"
2022/11/28/23:10:21.022176,12348,1669698621,21665573,RU_myo,0.7618137522457757,0.4413648940380742,-0.4596762573642286,-0.11633819499883412,"(0.0, 0.0, 0.0, 0.0, 0.0, 0.0, 0.0, 0.0, 0.0)",-38.875,25.25,-48.75,"(0.0, 0.0, 0.0, 0.0, 0.0, 0.0, 0.0, 0.0, 0.0)",0.69091796875,0.833984375,0.21240234375,"(0.0, 0.0, 0.0, 0.0, 0.0, 0.0, 0.0, 0.0, 0.0)"
2022/11/28/23:10:21.038286,12349,1669698621,38024425,RU_myo,0.7676545943077465,0.43756983275759204,-0.4513030190277076,-0.12475836771607171,"(0.0, 0.0, 0.0, 0.0, 0.0, 0.0, 0.0, 0.0, 0.0)",-57.75,27.75,-47.0625,"(0.0, 0.0, 0.0, 0.0, 0.0, 0.0, 0.0, 0.0, 0.0)",0.67236328125,0.8359375,0.25048828125,"(0.0, 0.0, 0.0, 0.0, 0.0, 0.0, 0.0, 0.0, 0.0)"
2022/11/28/23:10:21.062419,12350,1669698621,61980009,RU_myo,0.77563313886151,0.43102936942398357,-0.4409780790269444,-0.13470430732352473,"(0.0, 0.0, 0.0, 0.0, 0.0, 0.0, 0.0, 0.0, 0.0)",-78.5625,34.625,-49.0625,"(0.0, 0.0, 0.0, 0.0, 0.0, 0.0, 0.0, 0.0, 0.0)",0.638671875,0.84033203125,0.31201171875,"(0.0, 0.0, 0.0, 0.0, 0.0, 0.0, 0.0, 0.0, 0.0)"
2022/11/28/23:10:21.081814,12351,1669698621,81478595,RU_myo,0.7846860444621823,0.42243404742709734,-0.42945325208742335,-0.14624360318383547,"(0.0, 0.0, 0.0, 0.0, 0.0, 0.0, 0.0, 0.0, 0.0)",-97.25,38.0625,-51.25,"(0.0, 0.0, 0.0, 0.0, 0.0, 0.0, 0.0, 0.0, 0.0)",0.58984375,0.8369140625,0.3173828125,"(0.0, 0.0, 0.0, 0.0, 0.0, 0.0, 0.0, 0.0, 0.0)"
2022/11/28/23:10:21.098582,12352,1669698621,98194360,RU_myo,0.794383938704869,0.4116269905974365,-0.4174864495383253,-0.15881575171033954,"(0.0, 0.0, 0.0, 0.0, 0.0, 0.0, 0.0, 0.0, 0.0)",-112.8125,38.1875,-50.8125,"(0.0, 0.0, 0.0, 0.0, 0.0, 0.0, 0.0, 0.0, 0.0)",0.5556640625,0.8173828125,0.3427734375,"(0.0, 0.0, 0.0, 0.0, 0.0, 0.0, 0.0, 0.0, 0.0)"
2022/11/28/23:10:21.121390,12353,1669698621,120933771,RU_myo,0.8043964833275784,0.39917694824814953,-0.4050974626181909,-0.17175595296181848,"(0.0, 0.0, 0.0, 0.0, 0.0, 0.0, 0.0, 0.0, 0.0)",-122.875,38.5,-49.4375,"(0.0, 0.0, 0.0, 0.0, 0.0, 0.0, 0.0, 0.0, 0.0)",0.537109375,0.78271484375,0.3369140625,"(0.0, 0.0, 0.0, 0.0, 0.0, 0.0, 0.0, 0.0, 0.0)"
2022/11/28/23:10:21.141772,12354,1669698621,141449928,RU_myo,0.8108668252295756,0.38648165128744244,-0.3977123246666101,-0.18695409000212196,"(0.0, 0.0, 0.0, 0.0, 0.0, 0.0, 0.0, 0.0, 0.0)",-116.0,1.75,-51.25,"(0.0, 0.0, 0.0, 0.0, 0.0, 0.0, 0.0, 0.0, 0.0)",0.47021484375,0.73193359375,0.361328125,"(0.0, 0.0, 0.0, 0.0, 0.0, 0.0, 0.0, 0.0, 0.0)"
2022/11/28/23:10:21.159933,12355,1669698621,159644126,RU_myo,0.8184893882840956,0.374210174464563,-0.38800425364071556,-0.1987323973343039,"(0.0, 0.0, 0.0, 0.0, 0.0, 0.0, 0.0, 0.0, 0.0)",-111.9375,24.25,-41.1875,"(0.0, 0.0, 0.0, 0.0, 0.0, 0.0, 0.0, 0.0, 0.0)",0.5517578125,0.74365234375,0.337890625,"(0.0, 0.0, 0.0, 0.0, 0.0, 0.0, 0.0, 0.0, 0.0)"
2022/11/28/23:10:21.182352,12356,1669698621,182038068,RU_myo,0.8255778822759635,0.3626170485436566,-0.3787916854505862,-0.20843918881948953,"(0.0, 0.0, 0.0, 0.0, 0.0, 0.0, 0.0, 0.0, 0.0)",-101.875,25.0625,-31.0625,"(0.0, 0.0, 0.0, 0.0, 0.0, 0.0, 0.0, 0.0, 0.0)",0.3447265625,0.61083984375,0.34130859375,"(0.0, 0.0, 0.0, 0.0, 0.0, 0.0, 0.0, 0.0, 0.0)"
2022/11/28/23:10:21.201795,12357,1669698621,201431989,RU_myo,0.8308738663261989,0.35406591482834643,-0.3709116642668266,-0.21612608246977671,"(0.0, 0.0, 0.0, 0.0, 0.0, 0.0, 0.0, 0.0, 0.0)",-77.875,26.625,-34.1875,"(0.0, 0.0, 0.0, 0.0, 0.0, 0.0, 0.0, 0.0, 0.0)",0.50634765625,0.62353515625,0.39208984375,"(0.0, 0.0, 0.0, 0.0, 0.0, 0.0, 0.0, 0.0, 0.0)"
2022/11/28/23:10:21.218321,12358,1669698621,218033075,RU_myo,0.8341460287728442,0.3502363466338782,-0.36451925097551774,-0.22059152260976575,"(0.0, 0.0, 0.0, 0.0, 0.0, 0.0, 0.0, 0.0, 0.0)",-41.625,26.5625,-27.25,"(0.0, 0.0, 0.0, 0.0, 0.0, 0.0, 0.0, 0.0, 0.0)",0.45556640625,0.58447265625,0.39453125,"(0.0, 0.0, 0.0, 0.0, 0.0, 0.0, 0.0, 0.0, 0.0)"
2022/11/28/23:10:21.250074,12359,1669698621,249828815,RU_myo,0.8356017240391673,0.3496221092254456,-0.36030365062112524,-0.222969546962387,"(0.0, 0.0, 0.0, 0.0, 0.0, 0.0, 0.0, 0.0, 0.0)",-14.1875,19.25,-21.0625,"(0.0, 0.0, 0.0, 0.0, 0.0, 0.0, 0.0, 0.0, 0.0)",0.43017578125,0.58837890625,0.43017578125,"(0.0, 0.0, 0.0, 0.0, 0.0, 0.0, 0.0, 0.0, 0.0)"
2022/11/28/23:10:21.261806,12360,1669698621,261466026,RU_myo,0.8352791776770843,0.35187317934295875,-0.3584040432093415,-0.22369734645133457,"(0.0, 0.0, 0.0, 0.0, 0.0, 0.0, 0.0, 0.0, 0.0)",7.375,12.0625,-16.25,"(0.0, 0.0, 0.0, 0.0, 0.0, 0.0, 0.0, 0.0, 0.0)",0.4287109375,0.6015625,0.40087890625,"(0.0, 0.0, 0.0, 0.0, 0.0, 0.0, 0.0, 0.0, 0.0)"
2022/11/28/23:10:21.278682,12361,1669698621,278398036,RU_myo,0.8344818875479375,0.35467921654045237,-0.357914115607161,-0.22302492810855498,"(0.0, 0.0, 0.0, 0.0, 0.0, 0.0, 0.0, 0.0, 0.0)",15.3125,8.1875,-7.5625,"(0.0, 0.0, 0.0, 0.0, 0.0, 0.0, 0.0, 0.0, 0.0)",0.42919921875,0.6328125,0.400390625,"(0.0, 0.0, 0.0, 0.0, 0.0, 0.0, 0.0, 0.0, 0.0)"
2022/11/28/23:10:21.301031,12362,1669698621,300658226,RU_myo,0.8336100340618675,0.35741838918335744,-0.35790666567131285,-0.2219216637757322,"(0.0, 0.0, 0.0, 0.0, 0.0, 0.0, 0.0, 0.0, 0.0)",16.875,4.75,-2.625,"(0.0, 0.0, 0.0, 0.0, 0.0, 0.0, 0.0, 0.0, 0.0)",0.400390625,0.65478515625,0.4228515625,"(0.0, 0.0, 0.0, 0.0, 0.0, 0.0, 0.0, 0.0, 0.0)"
2022/11/28/23:10:21.321799,12363,1669698621,321370840,RU_myo,0.8325228683516447,0.3597426529372869,-0.35901022812642036,-0.22045986807083143,"(0.0, 0.0, 0.0, 0.0, 0.0, 0.0, 0.0, 0.0, 0.0)",18.875,-2.0,2.5625,"(0.0, 0.0, 0.0, 0.0, 0.0, 0.0, 0.0, 0.0, 0.0)",0.40576171875,0.68701171875,0.4580078125,"(0.0, 0.0, 0.0, 0.0, 0.0, 0.0, 0.0, 0.0, 0.0)"
2022/11/28/23:10:21.340374,12364,1669698621,340003490,RU_myo,0.8317243979780157,0.36059497638908905,-0.3610832566550187,-0.21868852410326778,"(0.0, 0.0, 0.0, 0.0, 0.0, 0.0, 0.0, 0.0, 0.0)",13.75,-6.125,7.4375,"(0.0, 0.0, 0.0, 0.0, 0.0, 0.0, 0.0, 0.0, 0.0)",0.44482421875,0.68212890625,0.46337890625,"(0.0, 0.0, 0.0, 0.0, 0.0, 0.0, 0.0, 0.0, 0.0)"
2022/11/28/23:10:21.360445,12365,1669698621,360182762,RU_myo,0.8313842134118363,0.36066730174367084,-0.36310877950128584,-0.21649804015650712,"(0.0, 0.0, 0.0, 0.0, 0.0, 0.0, 0.0, 0.0, 0.0)",9.4375,-5.0625,11.5,"(0.0, 0.0, 0.0, 0.0, 0.0, 0.0, 0.0, 0.0, 0.0)",0.48486328125,0.74169921875,0.49609375,"(0.0, 0.0, 0.0, 0.0, 0.0, 0.0, 0.0, 0.0, 0.0)"
2022/11/28/23:10:21.381558,12366,1669698621,381254673,RU_myo,0.8312027500010074,0.36097320190233206,-0.3642692034076966,-0.21472839436800883,"(0.0, 0.0, 0.0, 0.0, 0.0, 0.0, 0.0, 0.0, 0.0)",8.0625,-3.3125,10.625,"(0.0, 0.0, 0.0, 0.0, 0.0, 0.0, 0.0, 0.0, 0.0)",0.44384765625,0.765625,0.50341796875,"(0.0, 0.0, 0.0, 0.0, 0.0, 0.0, 0.0, 0.0, 0.0)"
2022/11/28/23:10:21.398458,12367,1669698621,398185729,RU_myo,0.8312142063507868,0.36073402552013145,-0.3653729063897643,-0.21320540628457177,"(0.0, 0.0, 0.0, 0.0, 0.0, 0.0, 0.0, 0.0, 0.0)",4.375,-2.875,10.1875,"(0.0, 0.0, 0.0, 0.0, 0.0, 0.0, 0.0, 0.0, 0.0)",0.46435546875,0.78466796875,0.50634765625,"(0.0, 0.0, 0.0, 0.0, 0.0, 0.0, 0.0, 0.0, 0.0)"
2022/11/28/23:10:21.422876,12368,1669698621,422467231,RU_myo,0.8314244014880772,0.36029204536662157,-0.3661514450541018,-0.21179288453704506,"(0.0, 0.0, 0.0, 0.0, 0.0, 0.0, 0.0, 0.0, 0.0)",2.875,-1.5625,9.3125,"(0.0, 0.0, 0.0, 0.0, 0.0, 0.0, 0.0, 0.0, 0.0)",0.47802734375,0.78125,0.5146484375,"(0.0, 0.0, 0.0, 0.0, 0.0, 0.0, 0.0, 0.0, 0.0)"
2022/11/28/23:10:21.441917,12369,1669698621,441458702,RU_myo,0.8316411881919524,0.36018456157950174,-0.3662883501166904,-0.21088589395986757,"(0.0, 0.0, 0.0, 0.0, 0.0, 0.0, 0.0, 0.0, 0.0)",0.8125,0.625,6.4375,"(0.0, 0.0, 0.0, 0.0, 0.0, 0.0, 0.0, 0.0, 0.0)",0.45556640625,0.79248046875,0.49462890625,"(0.0, 0.0, 0.0, 0.0, 0.0, 0.0, 0.0, 0.0, 0.0)"
2022/11/28/23:10:21.458387,12370,1669698621,458087921,RU_myo,0.8318653546722081,0.36011487215247107,-0.3660964412153426,-0.21045357274266444,"(0.0, 0.0, 0.0, 0.0, 0.0, 0.0, 0.0, 0.0, 0.0)",0.25,1.125,3.1875,"(0.0, 0.0, 0.0, 0.0, 0.0, 0.0, 0.0, 0.0, 0.0)",0.47314453125,0.81982421875,0.52001953125,"(0.0, 0.0, 0.0, 0.0, 0.0, 0.0, 0.0, 0.0, 0.0)"
2022/11/28/23:10:21.481571,12371,1669698621,481265306,RU_myo,0.8322141400021492,0.36004629350001305,-0.36547842099984373,-0.21026605884176047,"(0.0, 0.0, 0.0, 0.0, 0.0, 0.0, 0.0, 0.0, 0.0)",-1.4375,3.5625,1.0,"(0.0, 0.0, 0.0, 0.0, 0.0, 0.0, 0.0, 0.0, 0.0)",0.4765625,0.80908203125,0.509765625,"(0.0, 0.0, 0.0, 0.0, 0.0, 0.0, 0.0, 0.0, 0.0)"
2022/11/28/23:10:21.505009,12372,1669698621,504302501,RU_myo,0.8327892079691075,0.35969120511301306,-0.36451313031306876,-0.21027256093913627,"(0.0, 0.0, 0.0, 0.0, 0.0, 0.0, 0.0, 0.0, 0.0)",-3.0625,4.6875,-0.625,"(0.0, 0.0, 0.0, 0.0, 0.0, 0.0, 0.0, 0.0, 0.0)",0.46923828125,0.77587890625,0.5078125,"(0.0, 0.0, 0.0, 0.0, 0.0, 0.0, 0.0, 0.0, 0.0)"
2022/11/28/23:10:21.527051,12373,1669698621,526769399,RU_myo,0.8332241112720733,0.3597555425857153,-0.3634177978546571,-0.21033552761289023,"(0.0, 0.0, 0.0, 0.0, 0.0, 0.0, 0.0, 0.0, 0.0)",-1.1875,5.5625,-2.0625,"(0.0, 0.0, 0.0, 0.0, 0.0, 0.0, 0.0, 0.0, 0.0)",0.45654296875,0.763671875,0.50244140625,"(0.0, 0.0, 0.0, 0.0, 0.0, 0.0, 0.0, 0.0, 0.0)"
2022/11/28/23:10:21.541761,12374,1669698621,541352272,RU_myo,0.8333201066075475,0.3603546406951557,-0.3624298537343893,-0.21063412348221244,"(0.0, 0.0, 0.0, 0.0, 0.0, 0.0, 0.0, 0.0, 0.0)",1.5,3.6875,-3.5,"(0.0, 0.0, 0.0, 0.0, 0.0, 0.0, 0.0, 0.0, 0.0)",0.45263671875,0.7841796875,0.5087890625,"(0.0, 0.0, 0.0, 0.0, 0.0, 0.0, 0.0, 0.0, 0.0)"
2022/11/28/23:10:21.564140,12375,1669698621,563864231,RU_myo,0.8336391795703583,0.3606658304350013,-0.3612761973844597,-0.21082074434295048,"(0.0, 0.0, 0.0, 0.0, 0.0, 0.0, 0.0, 0.0, 0.0)",0.625,5.1875,-3.75,"(0.0, 0.0, 0.0, 0.0, 0.0, 0.0, 0.0, 0.0, 0.0)",0.45458984375,0.76123046875,0.51171875,"(0.0, 0.0, 0.0, 0.0, 0.0, 0.0, 0.0, 0.0, 0.0)"
2022/11/28/23:10:21.585551,12376,1669698621,584972381,RU_myo,0.8340920463966509,0.3609820975038268,-0.35994444182956825,-0.2107661790126334,"(0.0, 0.0, 0.0, 0.0, 0.0, 0.0, 0.0, 0.0, 0.0)",1.3125,6.625,-2.875,"(0.0, 0.0, 0.0, 0.0, 0.0, 0.0, 0.0, 0.0, 0.0)",0.44921875,0.744140625,0.52099609375,"(0.0, 0.0, 0.0, 0.0, 0.0, 0.0, 0.0, 0.0, 0.0)"
2022/11/28/23:10:21.603754,12377,1669698621,601846694,RU_myo,0.834470599883714,0.3618765496423742,-0.3584585893151735,-0.21026559512868598,"(0.0, 0.0, 0.0, 0.0, 0.0, 0.0, 0.0, 0.0, 0.0)",6.5,8.0625,-2.625,"(0.0, 0.0, 0.0, 0.0, 0.0, 0.0, 0.0, 0.0, 0.0)",0.44775390625,0.73974609375,0.54150390625,"(0.0, 0.0, 0.0, 0.0, 0.0, 0.0, 0.0, 0.0, 0.0)"
2022/11/28/23:10:21.624438,12378,1669698621,623863697,RU_myo,0.8348489298298635,0.36322459288035663,-0.3568158242276197,-0.20923103753887792,"(0.0, 0.0, 0.0, 0.0, 0.0, 0.0, 0.0, 0.0, 0.0)",8.8125,11.4375,-1.9375,"(0.0, 0.0, 0.0, 0.0, 0.0, 0.0, 0.0, 0.0, 0.0)",0.45947265625,0.74951171875,0.5361328125,"(0.0, 0.0, 0.0, 0.0, 0.0, 0.0, 0.0, 0.0, 0.0)"
2022/11/28/23:10:21.645645,12379,1669698621,645012617,RU_myo,0.8358799586418034,0.36432037043686927,-0.35431056297303165,-0.20745936322917047,"(0.0, 0.0, 0.0, 0.0, 0.0, 0.0, 0.0, 0.0, 0.0)",9.0625,16.875,0.375,"(0.0, 0.0, 0.0, 0.0, 0.0, 0.0, 0.0, 0.0, 0.0)",0.45849609375,0.7255859375,0.5634765625,"(0.0, 0.0, 0.0, 0.0, 0.0, 0.0, 0.0, 0.0, 0.0)"
2022/11/28/23:10:21.662274,12380,1669698621,661362648,RU_myo,0.8373050683607806,0.365489338777107,-0.3511456523020535,-0.2050231611476791,"(0.0, 0.0, 0.0, 0.0, 0.0, 0.0, 0.0, 0.0, 0.0)",10.3125,21.75,3.125,"(0.0, 0.0, 0.0, 0.0, 0.0, 0.0, 0.0, 0.0, 0.0)",0.42333984375,0.69482421875,0.568359375,"(0.0, 0.0, 0.0, 0.0, 0.0, 0.0, 0.0, 0.0, 0.0)"
2022/11/28/23:10:21.684557,12381,1669698621,684102773,RU_myo,0.8386965874884954,0.3667657225979455,-0.3483938666315648,-0.20172419923218668,"(0.0, 0.0, 0.0, 0.0, 0.0, 0.0, 0.0, 0.0, 0.0)",15.25,21.375,6.0625,"(0.0, 0.0, 0.0, 0.0, 0.0, 0.0, 0.0, 0.0, 0.0)",0.46435546875,0.703125,0.61767578125,"(0.0, 0.0, 0.0, 0.0, 0.0, 0.0, 0.0, 0.0, 0.0)"
2022/11/28/23:10:21.705148,12382,1669698621,704591274,RU_myo,0.840710597588415,0.3677422208850153,-0.3452199172324724,-0.19696334386654676,"(0.0, 0.0, 0.0, 0.0, 0.0, 0.0, 0.0, 0.0, 0.0)",17.5,27.0625,11.3125,"(0.0, 0.0, 0.0, 0.0, 0.0, 0.0, 0.0, 0.0, 0.0)",0.48876953125,0.6875,0.658203125,"(0.0, 0.0, 0.0, 0.0, 0.0, 0.0, 0.0, 0.0, 0.0)"
2022/11/28/23:10:21.727578,12383,1669698621,727146148,RU_myo,0.8439695958900764,0.36775271680319016,-0.34065193568109614,-0.1908651859657387,"(0.0, 0.0, 0.0, 0.0, 0.0, 0.0, 0.0, 0.0, 0.0)",13.0625,37.875,17.3125,"(0.0, 0.0, 0.0, 0.0, 0.0, 0.0, 0.0, 0.0, 0.0)",0.509765625,0.68017578125,0.69775390625,"(0.0, 0.0, 0.0, 0.0, 0.0, 0.0, 0.0, 0.0, 0.0)"
2022/11/28/23:10:21.744558,12384,1669698621,744197368,RU_myo,0.8489548229848175,0.36695063597560734,-0.33344167071436176,-0.1828649543218429,"(0.0, 0.0, 0.0, 0.0, 0.0, 0.0, 0.0, 0.0, 0.0)",9.0625,56.0,23.8125,"(0.0, 0.0, 0.0, 0.0, 0.0, 0.0, 0.0, 0.0, 0.0)",0.50439453125,0.658203125,0.75048828125,"(0.0, 0.0, 0.0, 0.0, 0.0, 0.0, 0.0, 0.0, 0.0)"
2022/11/28/23:10:21.765513,12385,1669698621,764779806,RU_myo,0.8553260370959843,0.3661061564619792,-0.3235626434486415,-0.17231038340983115,"(0.0, 0.0, 0.0, 0.0, 0.0, 0.0, 0.0, 0.0, 0.0)",11.8125,75.6875,30.9375,"(0.0, 0.0, 0.0, 0.0, 0.0, 0.0, 0.0, 0.0, 0.0)",0.4921875,0.59130859375,0.7939453125,"(0.0, 0.0, 0.0, 0.0, 0.0, 0.0, 0.0, 0.0, 0.0)"
2022/11/28/23:10:21.780885,12386,1669698621,780446052,RU_myo,0.8618154784122884,0.36639364850630085,-0.3128048390129588,-0.15869123540169616,"(0.0, 0.0, 0.0, 0.0, 0.0, 0.0, 0.0, 0.0, 0.0)",22.75,88.6875,40.1875,"(0.0, 0.0, 0.0, 0.0, 0.0, 0.0, 0.0, 0.0, 0.0)",0.5009765625,0.55810546875,0.80859375,"(0.0, 0.0, 0.0, 0.0, 0.0, 0.0, 0.0, 0.0, 0.0)"
2022/11/28/23:10:21.804698,12387,1669698621,804013252,RU_myo,0.8671515395029105,0.3704330747689986,-0.3009730584422363,-0.1422770633195808,"(0.0, 0.0, 0.0, 0.0, 0.0, 0.0, 0.0, 0.0, 0.0)",32.5625,105.25,50.75,"(0.0, 0.0, 0.0, 0.0, 0.0, 0.0, 0.0, 0.0, 0.0)",0.53369140625,0.51953125,0.8037109375,"(0.0, 0.0, 0.0, 0.0, 0.0, 0.0, 0.0, 0.0, 0.0)"
2022/11/28/23:10:21.826834,12388,1669698621,826454877,RU_myo,0.8732962680647702,0.37530743306753367,-0.2861955689792918,-0.1207893007059114,"(0.0, 0.0, 0.0, 0.0, 0.0, 0.0, 0.0, 0.0, 0.0)",41.25,133.375,68.5625,"(0.0, 0.0, 0.0, 0.0, 0.0, 0.0, 0.0, 0.0, 0.0)",0.533203125,0.49853515625,0.78076171875,"(0.0, 0.0, 0.0, 0.0, 0.0, 0.0, 0.0, 0.0, 0.0)"
2022/11/28/23:10:21.840893,12389,1669698621,840481042,RU_myo,0.8791555751389973,0.3818992247740007,-0.26880041328187615,-0.09478815663641091,"(0.0, 0.0, 0.0, 0.0, 0.0, 0.0, 0.0, 0.0, 0.0)",55.125,157.0625,83.0625,"(0.0, 0.0, 0.0, 0.0, 0.0, 0.0, 0.0, 0.0, 0.0)",0.521484375,0.5302734375,0.76171875,"(0.0, 0.0, 0.0, 0.0, 0.0, 0.0, 0.0, 0.0, 0.0)"
2022/11/28/23:10:21.864814,12390,1669698621,864000797,RU_myo,0.8831377101245748,0.3903897155267662,-0.2514705484631452,-0.06652982956913309,"(0.0, 0.0, 0.0, 0.0, 0.0, 0.0, 0.0, 0.0, 0.0)",69.75,161.3125,90.75,"(0.0, 0.0, 0.0, 0.0, 0.0, 0.0, 0.0, 0.0, 0.0)",0.53271484375,0.56005859375,0.56689453125,"(0.0, 0.0, 0.0, 0.0, 0.0, 0.0, 0.0, 0.0, 0.0)"
2022/11/28/23:10:21.888185,12391,1669698621,887598276,RU_myo,0.8855407405710257,0.39967747237793466,-0.23402007163973756,-0.0361955927184049,"(0.0, 0.0, 0.0, 0.0, 0.0, 0.0, 0.0, 0.0, 0.0)",78.1875,166.0625,98.8125,"(0.0, 0.0, 0.0, 0.0, 0.0, 0.0, 0.0, 0.0, 0.0)",0.60400390625,0.6337890625,0.48486328125,"(0.0, 0.0, 0.0, 0.0, 0.0, 0.0, 0.0, 0.0, 0.0)"
2022/11/28/23:10:21.901393,12392,1669698621,900895118,RU_myo,0.8868259388236595,0.4082854088231439,-0.21638089015967188,-0.004699951633933635,"(0.0, 0.0, 0.0, 0.0, 0.0, 0.0, 0.0, 0.0, 0.0)",79.6875,167.1875,105.25,"(0.0, 0.0, 0.0, 0.0, 0.0, 0.0, 0.0, 0.0, 0.0)",0.5546875,0.6552734375,0.54345703125,"(0.0, 0.0, 0.0, 0.0, 0.0, 0.0, 0.0, 0.0, 0.0)"
2022/11/28/23:10:21.924684,12393,1669698621,924214124,RU_myo,0.8869860654996333,0.41639271530680555,-0.19769803648178585,0.028076905458975454,"(0.0, 0.0, 0.0, 0.0, 0.0, 0.0, 0.0, 0.0, 0.0)",82.0,174.625,109.0,"(0.0, 0.0, 0.0, 0.0, 0.0, 0.0, 0.0, 0.0, 0.0)",0.60107421875,0.5615234375,0.52978515625,"(0.0, 0.0, 0.0, 0.0, 0.0, 0.0, 0.0, 0.0, 0.0)"
2022/11/28/23:10:21.946674,12394,1669698621,946282863,RU_myo,0.8843141437943465,0.4265924593441944,-0.17914563859997287,0.06256363869334658,"(0.0, 0.0, 0.0, 0.0, 0.0, 0.0, 0.0, 0.0, 0.0)",97.8125,176.25,116.375,"(0.0, 0.0, 0.0, 0.0, 0.0, 0.0, 0.0, 0.0, 0.0)",0.6240234375,0.6279296875,0.302734375,"(0.0, 0.0, 0.0, 0.0, 0.0, 0.0, 0.0, 0.0, 0.0)"
2022/11/28/23:10:21.960611,12395,1669698621,960288286,RU_myo,0.8786886568093978,0.4383677363993536,-0.1626025688899858,0.09643846052784442,"(0.0, 0.0, 0.0, 0.0, 0.0, 0.0, 0.0, 0.0, 0.0)",110.4375,160.0,119.1875,"(0.0, 0.0, 0.0, 0.0, 0.0, 0.0, 0.0, 0.0, 0.0)",0.5361328125,0.76416015625,0.31591796875,"(0.0, 0.0, 0.0, 0.0, 0.0, 0.0, 0.0, 0.0, 0.0)"
2022/11/28/23:10:21.984753,12396,1669698621,984264135,RU_myo,0.8719727708362109,0.44880412879453024,-0.1486247862933063,0.12707877004626847,"(0.0, 0.0, 0.0, 0.0, 0.0, 0.0, 0.0, 0.0, 0.0)",102.8125,138.125,111.3125,"(0.0, 0.0, 0.0, 0.0, 0.0, 0.0, 0.0, 0.0, 0.0)",0.54931640625,0.81005859375,0.37353515625,"(0.0, 0.0, 0.0, 0.0, 0.0, 0.0, 0.0, 0.0, 0.0)"
2022/11/28/23:10:22.006452,12397,1669698622,6121397,RU_myo,0.86578425356366,0.4559650573971052,-0.13599600373236284,0.15497928791583,"(0.0, 0.0, 0.0, 0.0, 0.0, 0.0, 0.0, 0.0, 0.0)",81.5625,127.375,103.375,"(0.0, 0.0, 0.0, 0.0, 0.0, 0.0, 0.0, 0.0, 0.0)",0.5498046875,0.77294921875,0.3388671875,"(0.0, 0.0, 0.0, 0.0, 0.0, 0.0, 0.0, 0.0, 0.0)"
2022/11/28/23:10:22.020943,12398,1669698622,20549535,RU_myo,0.8601366820622579,0.46040384564260656,-0.12488217793779306,0.18054813408601753,"(0.0, 0.0, 0.0, 0.0, 0.0, 0.0, 0.0, 0.0, 0.0)",62.625,116.5,98.25,"(0.0, 0.0, 0.0, 0.0, 0.0, 0.0, 0.0, 0.0, 0.0)",0.5166015625,0.8251953125,0.296875,"(0.0, 0.0, 0.0, 0.0, 0.0, 0.0, 0.0, 0.0, 0.0)"
2022/11/28/23:10:22.044284,12399,1669698622,43883562,RU_myo,0.8524352376128465,0.4673561946442479,-0.11755622709740386,0.2027631289810881,"(0.0, 0.0, 0.0, 0.0, 0.0, 0.0, 0.0, 0.0, 0.0)",57.3125,94.4375,90.6875,"(0.0, 0.0, 0.0, 0.0, 0.0, 0.0, 0.0, 0.0, 0.0)",0.5068359375,0.861328125,0.2294921875,"(0.0, 0.0, 0.0, 0.0, 0.0, 0.0, 0.0, 0.0, 0.0)"
2022/11/28/23:10:22.068272,12400,1669698622,66868066,RU_myo,0.8444322886156704,0.47593165782393976,-0.11268049767128291,0.21846343508424784,"(0.0, 0.0, 0.0, 0.0, 0.0, 0.0, 0.0, 0.0, 0.0)",55.625,62.1875,68.25,"(0.0, 0.0, 0.0, 0.0, 0.0, 0.0, 0.0, 0.0, 0.0)",0.49169921875,0.96142578125,0.216796875,"(0.0, 0.0, 0.0, 0.0, 0.0, 0.0, 0.0, 0.0, 0.0)"
2022/11/28/23:10:22.088939,12401,1669698622,87440490,RU_myo,0.8386076054427783,0.48104421999377944,-0.11139521653199436,0.23005401156662286,"(0.0, 0.0, 0.0, 0.0, 0.0, 0.0, 0.0, 0.0, 0.0)",32.6875,38.5,53.5,"(0.0, 0.0, 0.0, 0.0, 0.0, 0.0, 0.0, 0.0, 0.0)",0.54541015625,0.9033203125,0.30078125,"(0.0, 0.0, 0.0, 0.0, 0.0, 0.0, 0.0, 0.0, 0.0)"
2022/11/28/23:10:22.104731,12402,1669698622,103994131,RU_myo,0.8354873702685071,0.48195560166862444,-0.11292019542641277,0.2385973210388365,"(0.0, 0.0, 0.0, 0.0, 0.0, 0.0, 0.0, 0.0, 0.0)",6.4375,21.25,44.75,"(0.0, 0.0, 0.0, 0.0, 0.0, 0.0, 0.0, 0.0, 0.0)",0.5224609375,0.80322265625,0.3583984375,"(0.0, 0.0, 0.0, 0.0, 0.0, 0.0, 0.0, 0.0, 0.0)"
2022/11/28/23:10:22.127838,12403,1669698622,126362085,RU_myo,0.8330448081630307,0.4823822625228921,-0.11591090934214503,0.24476184647814722,"(0.0, 0.0, 0.0, 0.0, 0.0, 0.0, 0.0, 0.0, 0.0)",2.0625,7.0,37.3125,"(0.0, 0.0, 0.0, 0.0, 0.0, 0.0, 0.0, 0.0, 0.0)",0.498046875,0.740234375,0.37255859375,"(0.0, 0.0, 0.0, 0.0, 0.0, 0.0, 0.0, 0.0, 0.0)"
2022/11/28/23:10:22.148108,12404,1669698622,147499561,RU_myo,0.8306045003477387,0.4834206086679961,-0.12030581056623993,0.24885174514386615,"(0.0, 0.0, 0.0, 0.0, 0.0, 0.0, 0.0, 0.0, 0.0)",-0.25,-4.25,28.875,"(0.0, 0.0, 0.0, 0.0, 0.0, 0.0, 0.0, 0.0, 0.0)",0.533203125,0.73193359375,0.3359375,"(0.0, 0.0, 0.0, 0.0, 0.0, 0.0, 0.0, 0.0, 0.0)"
2022/11/28/23:10:22.164467,12405,1669698622,164066076,RU_myo,0.8291472241518907,0.4836081755709239,-0.12543415383039866,0.2508072691431183,"(0.0, 0.0, 0.0, 0.0, 0.0, 0.0, 0.0, 0.0, 0.0)",-6.875,-13.75,20.75,"(0.0, 0.0, 0.0, 0.0, 0.0, 0.0, 0.0, 0.0, 0.0)",0.56298828125,0.7783203125,0.41455078125,"(0.0, 0.0, 0.0, 0.0, 0.0, 0.0, 0.0, 0.0, 0.0)"
2022/11/28/23:10:22.187812,12406,1669698622,186990261,RU_myo,0.8291325695922044,0.48189057986826067,-0.1310473812510647,0.2512911358223723,"(0.0, 0.0, 0.0, 0.0, 0.0, 0.0, 0.0, 0.0, 0.0)",-16.3125,-17.9375,12.1875,"(0.0, 0.0, 0.0, 0.0, 0.0, 0.0, 0.0, 0.0, 0.0)",0.576171875,0.70703125,0.47607421875,"(0.0, 0.0, 0.0, 0.0, 0.0, 0.0, 0.0, 0.0, 0.0)"
2022/11/28/23:10:22.208030,12407,1669698622,207276105,RU_myo,0.8297180817699956,0.4797751874282473,-0.13581422290430664,0.2508748117468316,"(0.0, 0.0, 0.0, 0.0, 0.0, 0.0, 0.0, 0.0, 0.0)",-16.125,-17.625,6.0,"(0.0, 0.0, 0.0, 0.0, 0.0, 0.0, 0.0, 0.0, 0.0)",0.5517578125,0.6796875,0.521484375,"(0.0, 0.0, 0.0, 0.0, 0.0, 0.0, 0.0, 0.0, 0.0)"
2022/11/28/23:10:22.223920,12408,1669698622,223596096,RU_myo,0.8300520848388503,0.47841372460967047,-0.1392270612190174,0.2504988422809502,"(0.0, 0.0, 0.0, 0.0, 0.0, 0.0, 0.0, 0.0, 0.0)",-10.125,-13.375,2.625,"(0.0, 0.0, 0.0, 0.0, 0.0, 0.0, 0.0, 0.0, 0.0)",0.53857421875,0.6640625,0.51513671875,"(0.0, 0.0, 0.0, 0.0, 0.0, 0.0, 0.0, 0.0, 0.0)"
2022/11/28/23:10:22.246600,12409,1669698622,246291637,RU_myo,0.8300421938279847,0.4778586907477971,-0.14258243729554912,0.24970237627401173,"(0.0, 0.0, 0.0, 0.0, 0.0, 0.0, 0.0, 0.0, 0.0)",-6.375,-15.4375,1.6875,"(0.0, 0.0, 0.0, 0.0, 0.0, 0.0, 0.0, 0.0, 0.0)",0.5322265625,0.6865234375,0.50537109375,"(0.0, 0.0, 0.0, 0.0, 0.0, 0.0, 0.0, 0.0, 0.0)"
2022/11/28/23:10:22.267818,12410,1669698622,267254829,RU_myo,0.830235496514659,0.4767048395662025,-0.14612437719865412,0.24921713955810562,"(0.0, 0.0, 0.0, 0.0, 0.0, 0.0, 0.0, 0.0, 0.0)",-6.25,-15.4375,1.5625,"(0.0, 0.0, 0.0, 0.0, 0.0, 0.0, 0.0, 0.0, 0.0)",0.57666015625,0.6728515625,0.57666015625,"(0.0, 0.0, 0.0, 0.0, 0.0, 0.0, 0.0, 0.0, 0.0)"
2022/11/28/23:10:22.284827,12411,1669698622,284083366,RU_myo,0.8307179073514224,0.4751144886718201,-0.1484427590505995,0.24927640952411526,"(0.0, 0.0, 0.0, 0.0, 0.0, 0.0, 0.0, 0.0, 0.0)",-5.0,-9.1875,2.1875,"(0.0, 0.0, 0.0, 0.0, 0.0, 0.0, 0.0, 0.0, 0.0)",0.54150390625,0.6494140625,0.595703125,"(0.0, 0.0, 0.0, 0.0, 0.0, 0.0, 0.0, 0.0, 0.0)"
2022/11/28/23:10:22.306757,12412,1669698622,306353330,RU_myo,0.8310930950495319,0.4740209295060711,-0.1497261576201896,0.24934013611026273,"(0.0, 0.0, 0.0, 0.0, 0.0, 0.0, 0.0, 0.0, 0.0)",-2.3125,-6.0625,1.25,"(0.0, 0.0, 0.0, 0.0, 0.0, 0.0, 0.0, 0.0, 0.0)",0.513671875,0.66845703125,0.59326171875,"(0.0, 0.0, 0.0, 0.0, 0.0, 0.0, 0.0, 0.0, 0.0)"
2022/11/28/23:10:22.327919,12413,1669698622,327366590,RU_myo,0.8312781337923039,0.47316749343989567,-0.150581037966489,0.24982901840163738,"(0.0, 0.0, 0.0, 0.0, 0.0, 0.0, 0.0, 0.0, 0.0)",-1.25,-1.8125,1.4375,"(0.0, 0.0, 0.0, 0.0, 0.0, 0.0, 0.0, 0.0, 0.0)",0.54248046875,0.68994140625,0.57373046875,"(0.0, 0.0, 0.0, 0.0, 0.0, 0.0, 0.0, 0.0, 0.0)"
2022/11/28/23:10:22.344763,12414,1669698622,344237565,RU_myo,0.83181000778324,0.4718147461230147,-0.15088305982096928,0.25043414014783044,"(0.0, 0.0, 0.0, 0.0, 0.0, 0.0, 0.0, 0.0, 0.0)",-3.3125,1.9375,0.8125,"(0.0, 0.0, 0.0, 0.0, 0.0, 0.0, 0.0, 0.0, 0.0)",0.53173828125,0.68408203125,0.58056640625,"(0.0, 0.0, 0.0, 0.0, 0.0, 0.0, 0.0, 0.0, 0.0)"
2022/11/28/23:10:22.367571,12415,1669698622,367078542,RU_myo,0.8323031892584999,0.4704746980642796,-0.1508229085257959,0.25135116847803624,"(0.0, 0.0, 0.0, 0.0, 0.0, 0.0, 0.0, 0.0, 0.0)",-1.125,3.4375,1.3125,"(0.0, 0.0, 0.0, 0.0, 0.0, 0.0, 0.0, 0.0, 0.0)",0.517578125,0.65576171875,0.59228515625,"(0.0, 0.0, 0.0, 0.0, 0.0, 0.0, 0.0, 0.0, 0.0)"
2022/11/28/23:10:22.387507,12416,1669698622,387103796,RU_myo,0.8322501624520795,0.46999092415702326,-0.1505802090773216,0.25257434339763146,"(0.0, 0.0, 0.0, 0.0, 0.0, 0.0, 0.0, 0.0, 0.0)",4.3125,4.1875,1.875,"(0.0, 0.0, 0.0, 0.0, 0.0, 0.0, 0.0, 0.0, 0.0)",0.52783203125,0.65234375,0.57470703125,"(0.0, 0.0, 0.0, 0.0, 0.0, 0.0, 0.0, 0.0, 0.0)"
2022/11/28/23:10:22.404434,12417,1669698622,403931140,RU_myo,0.8319296701652986,0.46998227881678645,-0.15033329256178507,0.2537904305610647,"(0.0, 0.0, 0.0, 0.0, 0.0, 0.0, 0.0, 0.0, 0.0)",6.125,4.0625,1.875,"(0.0, 0.0, 0.0, 0.0, 0.0, 0.0, 0.0, 0.0, 0.0)",0.53857421875,0.67333984375,0.56787109375,"(0.0, 0.0, 0.0, 0.0, 0.0, 0.0, 0.0, 0.0, 0.0)"
2022/11/28/23:10:22.426678,12418,1669698622,426334381,RU_myo,0.8314698011261308,0.4703645784376717,-0.14991116073746713,0.2548367655044484,"(0.0, 0.0, 0.0, 0.0, 0.0, 0.0, 0.0, 0.0, 0.0)",5.9375,4.875,1.375,"(0.0, 0.0, 0.0, 0.0, 0.0, 0.0, 0.0, 0.0, 0.0)",0.52587890625,0.681640625,0.52197265625,"(0.0, 0.0, 0.0, 0.0, 0.0, 0.0, 0.0, 0.0, 0.0)"
2022/11/28/23:10:22.448322,12419,1669698622,447371959,RU_myo,0.8310522801303298,0.47067529431398997,-0.14979084064927134,0.2556943078564783,"(0.0, 0.0, 0.0, 0.0, 0.0, 0.0, 0.0, 0.0, 0.0)",4.9375,3.0625,1.625,"(0.0, 0.0, 0.0, 0.0, 0.0, 0.0, 0.0, 0.0, 0.0)",0.52783203125,0.6845703125,0.5283203125,"(0.0, 0.0, 0.0, 0.0, 0.0, 0.0, 0.0, 0.0, 0.0)"
2022/11/28/23:10:22.464321,12420,1669698622,463827610,RU_myo,0.8309686569381357,0.4703573138214539,-0.1499088454120803,0.256480850334512,"(0.0, 0.0, 0.0, 0.0, 0.0, 0.0, 0.0, 0.0, 0.0)",2.9375,2.0,0.875,"(0.0, 0.0, 0.0, 0.0, 0.0, 0.0, 0.0, 0.0, 0.0)",0.53564453125,0.6708984375,0.55810546875,"(0.0, 0.0, 0.0, 0.0, 0.0, 0.0, 0.0, 0.0, 0.0)"
2022/11/28/23:10:22.486790,12421,1669698622,486427307,RU_myo,0.8308700053133855,0.4701874559894952,-0.15003515082723343,0.25703743699490644,"(0.0, 0.0, 0.0, 0.0, 0.0, 0.0, 0.0, 0.0, 0.0)",1.4375,2.125,-0.0625,"(0.0, 0.0, 0.0, 0.0, 0.0, 0.0, 0.0, 0.0, 0.0)",0.537109375,0.67724609375,0.529296875,"(0.0, 0.0, 0.0, 0.0, 0.0, 0.0, 0.0, 0.0, 0.0)"
2022/11/28/23:10:22.508198,12422,1669698622,507308483,RU_myo,0.8308493579306852,0.47017577168234415,-0.15009246041371987,0.2570920875407028,"(0.0, 0.0, 0.0, 0.0, 0.0, 0.0, 0.0, 0.0, 0.0)",0.4375,0.625,-0.625,"(0.0, 0.0, 0.0, 0.0, 0.0, 0.0, 0.0, 0.0, 0.0)",0.53173828125,0.6845703125,0.513671875,"(0.0, 0.0, 0.0, 0.0, 0.0, 0.0, 0.0, 0.0, 0.0)"
2022/11/28/23:10:22.524585,12423,1669698622,524116754,RU_myo,0.8307833861915159,0.4699898665546009,-0.15051883258748647,0.25739574899490286,"(0.0, 0.0, 0.0, 0.0, 0.0, 0.0, 0.0, 0.0, 0.0)",1.9375,-0.8125,-0.4375,"(0.0, 0.0, 0.0, 0.0, 0.0, 0.0, 0.0, 0.0, 0.0)",0.533203125,0.67333984375,0.54931640625,"(0.0, 0.0, 0.0, 0.0, 0.0, 0.0, 0.0, 0.0, 0.0)"
2022/11/28/23:10:22.546798,12424,1669698622,546471595,RU_myo,0.8307561705063562,0.46970380103206544,-0.15070808118884596,0.2578945496244934,"(0.0, 0.0, 0.0, 0.0, 0.0, 0.0, 0.0, 0.0, 0.0)",3.25,0.4375,-0.25,"(0.0, 0.0, 0.0, 0.0, 0.0, 0.0, 0.0, 0.0, 0.0)",0.52734375,0.65283203125,0.56689453125,"(0.0, 0.0, 0.0, 0.0, 0.0, 0.0, 0.0, 0.0, 0.0)"
2022/11/28/23:10:22.567616,12425,1669698622,567116022,RU_myo,0.8305641052324733,0.4696987425416243,-0.15095061602409837,0.25838008800242956,"(0.0, 0.0, 0.0, 0.0, 0.0, 0.0, 0.0, 0.0, 0.0)",3.375,0.3125,-0.0625,"(0.0, 0.0, 0.0, 0.0, 0.0, 0.0, 0.0, 0.0, 0.0)",0.53955078125,0.6767578125,0.5517578125,"(0.0, 0.0, 0.0, 0.0, 0.0, 0.0, 0.0, 0.0, 0.0)"
2022/11/28/23:10:22.584190,12426,1669698622,583778619,RU_myo,0.8304711839013885,0.4694976000712539,-0.1513720811462181,0.2587974290564374,"(0.0, 0.0, 0.0, 0.0, 0.0, 0.0, 0.0, 0.0, 0.0)",1.25,-0.375,0.4375,"(0.0, 0.0, 0.0, 0.0, 0.0, 0.0, 0.0, 0.0, 0.0)",0.54736328125,0.6953125,0.55908203125,"(0.0, 0.0, 0.0, 0.0, 0.0, 0.0, 0.0, 0.0, 0.0)"
2022/11/28/23:10:22.606548,12427,1669698622,606174707,RU_myo,0.8306611917553124,0.4687690464164008,-0.15143437554154823,0.2594709917078281,"(0.0, 0.0, 0.0, 0.0, 0.0, 0.0, 0.0, 0.0, 0.0)",1.8125,1.9375,-0.125,"(0.0, 0.0, 0.0, 0.0, 0.0, 0.0, 0.0, 0.0, 0.0)",0.55517578125,0.673828125,0.60302734375,"(0.0, 0.0, 0.0, 0.0, 0.0, 0.0, 0.0, 0.0, 0.0)"
2022/11/28/23:10:22.627943,12428,1669698622,627292871,RU_myo,0.8308861408650972,0.46802577889910857,-0.15051533265065228,0.2606246838679178,"(0.0, 0.0, 0.0, 0.0, 0.0, 0.0, 0.0, 0.0, 0.0)",3.875,7.6875,-0.9375,"(0.0, 0.0, 0.0, 0.0, 0.0, 0.0, 0.0, 0.0, 0.0)",0.55126953125,0.654296875,0.59765625,"(0.0, 0.0, 0.0, 0.0, 0.0, 0.0, 0.0, 0.0, 0.0)"
2022/11/28/23:10:22.644822,12429,1669698622,643963813,RU_myo,0.831204408270188,0.4673617384435915,-0.149541107377145,0.26136123338323874,"(0.0, 0.0, 0.0, 0.0, 0.0, 0.0, 0.0, 0.0, 0.0)",0.5625,10.0625,-4.125,"(0.0, 0.0, 0.0, 0.0, 0.0, 0.0, 0.0, 0.0, 0.0)",0.5546875,0.642578125,0.5244140625,"(0.0, 0.0, 0.0, 0.0, 0.0, 0.0, 0.0, 0.0, 0.0)"
2022/11/28/23:10:22.666996,12430,1669698622,666594028,RU_myo,0.831907931389657,0.46622002934582146,-0.15076767118148454,0.2604557299317387,"(0.0, 0.0, 0.0, 0.0, 0.0, 0.0, 0.0, 0.0, 0.0)",-16.3125,1.1875,-5.1875,"(0.0, 0.0, 0.0, 0.0, 0.0, 0.0, 0.0, 0.0, 0.0)",0.5849609375,0.712890625,0.404296875,"(0.0, 0.0, 0.0, 0.0, 0.0, 0.0, 0.0, 0.0, 0.0)"
2022/11/28/23:10:22.687660,12431,1669698622,687136173,RU_myo,0.8338358835358403,0.4645578588383925,-0.15308252660185107,0.25586999661681004,"(0.0, 0.0, 0.0, 0.0, 0.0, 0.0, 0.0, 0.0, 0.0)",-31.8125,-9.375,-18.9375,"(0.0, 0.0, 0.0, 0.0, 0.0, 0.0, 0.0, 0.0, 0.0)",0.66064453125,0.880859375,0.423828125,"(0.0, 0.0, 0.0, 0.0, 0.0, 0.0, 0.0, 0.0, 0.0)"
2022/11/28/23:10:22.703709,12432,1669698622,703216314,RU_myo,0.8382951094219432,0.46028712830572843,-0.15369354052165815,0.24854650397307068,"(0.0, 0.0, 0.0, 0.0, 0.0, 0.0, 0.0, 0.0, 0.0)",-48.0,-3.875,-40.0625,"(0.0, 0.0, 0.0, 0.0, 0.0, 0.0, 0.0, 0.0, 0.0)",0.68017578125,0.86376953125,0.494140625,"(0.0, 0.0, 0.0, 0.0, 0.0, 0.0, 0.0, 0.0, 0.0)"
2022/11/28/23:10:22.727653,12433,1669698622,726925849,RU_myo,0.8438896989856436,0.4570407974833285,-0.15173656818156445,0.23651617124037097,"(0.0, 0.0, 0.0, 0.0, 0.0, 0.0, 0.0, 0.0, 0.0)",-47.375,-7.8125,-66.0625,"(0.0, 0.0, 0.0, 0.0, 0.0, 0.0, 0.0, 0.0, 0.0)",0.564453125,0.8955078125,0.49560546875,"(0.0, 0.0, 0.0, 0.0, 0.0, 0.0, 0.0, 0.0, 0.0)"
2022/11/28/23:10:22.749328,12434,1669698622,748931407,RU_myo,0.8498341602872473,0.45589394118979026,-0.1477123226240852,0.21937111054171995,"(0.0, 0.0, 0.0, 0.0, 0.0, 0.0, 0.0, 0.0, 0.0)",-34.4375,-16.3125,-100.625,"(0.0, 0.0, 0.0, 0.0, 0.0, 0.0, 0.0, 0.0, 0.0)",0.6201171875,1.0068359375,0.4453125,"(0.0, 0.0, 0.0, 0.0, 0.0, 0.0, 0.0, 0.0, 0.0)"
2022/11/28/23:10:22.763621,12435,1669698622,763314247,RU_myo,0.8556770525829825,0.4569226346840864,-0.14227713885233842,0.1969662492820661,"(0.0, 0.0, 0.0, 0.0, 0.0, 0.0, 0.0, 0.0, 0.0)",-27.25,-25.3125,-131.5625,"(0.0, 0.0, 0.0, 0.0, 0.0, 0.0, 0.0, 0.0, 0.0)",0.619140625,1.04296875,0.38232421875,"(0.0, 0.0, 0.0, 0.0, 0.0, 0.0, 0.0, 0.0, 0.0)"
2022/11/28/23:10:22.786780,12436,1669698622,786446094,RU_myo,0.8619309935745498,0.45730380312021296,-0.13794802389904984,0.17005451087732426,"(0.0, 0.0, 0.0, 0.0, 0.0, 0.0, 0.0, 0.0, 0.0)",-36.375,-41.6875,-151.5625,"(0.0, 0.0, 0.0, 0.0, 0.0, 0.0, 0.0, 0.0, 0.0)",0.587890625,1.029296875,0.39208984375,"(0.0, 0.0, 0.0, 0.0, 0.0, 0.0, 0.0, 0.0, 0.0)"
2022/11/28/23:10:22.809091,12437,1669698622,808810234,RU_myo,0.8683241728014521,0.45680712141473834,-0.1353819074422621,0.13788445848154648,"(0.0, 0.0, 0.0, 0.0, 0.0, 0.0, 0.0, 0.0, 0.0)",-47.0,-62.875,-172.5,"(0.0, 0.0, 0.0, 0.0, 0.0, 0.0, 0.0, 0.0, 0.0)",0.578125,1.0458984375,0.3642578125,"(0.0, 0.0, 0.0, 0.0, 0.0, 0.0, 0.0, 0.0, 0.0)"
2022/11/28/23:10:22.823800,12438,1669698622,823473453,RU_myo,0.8745417621932374,0.45515479625034694,-0.13403780777333538,0.10022316956457955,"(0.0, 0.0, 0.0, 0.0, 0.0, 0.0, 0.0, 0.0, 0.0)",-59.125,-82.375,-195.5625,"(0.0, 0.0, 0.0, 0.0, 0.0, 0.0, 0.0, 0.0, 0.0)",0.5380859375,1.12548828125,0.33837890625,"(0.0, 0.0, 0.0, 0.0, 0.0, 0.0, 0.0, 0.0, 0.0)"
2022/11/28/23:10:22.846699,12439,1669698622,846321344,RU_myo,0.8815047791938958,0.449114538520197,-0.13440475860579965,0.05639872704439549,"(0.0, 0.0, 0.0, 0.0, 0.0, 0.0, 0.0, 0.0, 0.0)",-89.4375,-103.625,-220.0,"(0.0, 0.0, 0.0, 0.0, 0.0, 0.0, 0.0, 0.0, 0.0)",0.505859375,1.1103515625,0.2666015625,"(0.0, 0.0, 0.0, 0.0, 0.0, 0.0, 0.0, 0.0, 0.0)"
2022/11/28/23:10:22.869451,12440,1669698622,869021415,RU_myo,0.8893139039216063,0.43580653905286676,-0.1383716280158052,0.006836181004750852,"(0.0, 0.0, 0.0, 0.0, 0.0, 0.0, 0.0, 0.0, 0.0)",-134.0,-132.6875,-235.75,"(0.0, 0.0, 0.0, 0.0, 0.0, 0.0, 0.0, 0.0, 0.0)",0.55322265625,1.0517578125,0.23974609375,"(0.0, 0.0, 0.0, 0.0, 0.0, 0.0, 0.0, 0.0, 0.0)"
2022/11/28/23:10:22.890141,12441,1669698622,889689445,RU_myo,0.8970625284201541,0.4148082563205666,-0.14508523032283502,-0.046510284184266004,"(0.0, 0.0, 0.0, 0.0, 0.0, 0.0, 0.0, 0.0, 0.0)",-175.0625,-155.25,-243.875,"(0.0, 0.0, 0.0, 0.0, 0.0, 0.0, 0.0, 0.0, 0.0)",0.59375,0.90380859375,0.24853515625,"(0.0, 0.0, 0.0, 0.0, 0.0, 0.0, 0.0, 0.0, 0.0)"
2022/11/28/23:10:22.907570,12442,1669698622,907112121,RU_myo,0.9038402582059691,0.3862440001301575,-0.15393605694188642,-0.10095568524261703,"(0.0, 0.0, 0.0, 0.0, 0.0, 0.0, 0.0, 0.0, 0.0)",-211.9375,-170.9375,-239.375,"(0.0, 0.0, 0.0, 0.0, 0.0, 0.0, 0.0, 0.0, 0.0)",0.61279296875,0.7119140625,0.16357421875,"(0.0, 0.0, 0.0, 0.0, 0.0, 0.0, 0.0, 0.0, 0.0)"
2022/11/28/23:10:22.928881,12443,1669698622,928495407,RU_myo,0.9083401147442164,0.35162931064651465,-0.16406519476094972,-0.15606945796270402,"(0.0, 0.0, 0.0, 0.0, 0.0, 0.0, 0.0, 0.0, 0.0)",-237.125,-185.125,-234.875,"(0.0, 0.0, 0.0, 0.0, 0.0, 0.0, 0.0, 0.0, 0.0)",0.5185546875,0.59228515625,0.1767578125,"(0.0, 0.0, 0.0, 0.0, 0.0, 0.0, 0.0, 0.0, 0.0)"
2022/11/28/23:10:22.943604,12444,1669698622,943193674,RU_myo,0.909457313965426,0.3125115065438242,-0.17499423618381718,-0.2111894165315687,"(0.0, 0.0, 0.0, 0.0, 0.0, 0.0, 0.0, 0.0, 0.0)",-251.125,-196.5,-232.5,"(0.0, 0.0, 0.0, 0.0, 0.0, 0.0, 0.0, 0.0, 0.0)",0.50634765625,0.3974609375,0.18896484375,"(0.0, 0.0, 0.0, 0.0, 0.0, 0.0, 0.0, 0.0, 0.0)"
2022/11/28/23:10:22.967097,12445,1669698622,966590642,RU_myo,0.9066898044051187,0.26971809125992724,-0.18646498501902642,-0.2653234991416392,"(0.0, 0.0, 0.0, 0.0, 0.0, 0.0, 0.0, 0.0, 0.0)",-259.3125,-205.6875,-227.5,"(0.0, 0.0, 0.0, 0.0, 0.0, 0.0, 0.0, 0.0, 0.0)",0.5087890625,0.2001953125,0.1982421875,"(0.0, 0.0, 0.0, 0.0, 0.0, 0.0, 0.0, 0.0, 0.0)"
2022/11/28/23:10:22.989256,12446,1669698622,988797903,RU_myo,0.8988708371355852,0.2271133554003879,-0.1990980288406518,-0.3175070343436759,"(0.0, 0.0, 0.0, 0.0, 0.0, 0.0, 0.0, 0.0, 0.0)",-245.5625,-213.75,-223.125,"(0.0, 0.0, 0.0, 0.0, 0.0, 0.0, 0.0, 0.0, 0.0)",0.52880859375,0.1279296875,0.23583984375,"(0.0, 0.0, 0.0, 0.0, 0.0, 0.0, 0.0, 0.0, 0.0)"
2022/11/28/23:10:23.010223,12447,1669698623,9755611,RU_myo,0.8856098106915133,0.1872536801655109,-0.21276607857137253,-0.36791564016874173,"(0.0, 0.0, 0.0, 0.0, 0.0, 0.0, 0.0, 0.0, 0.0)",-219.75,-217.0,-225.6875,"(0.0, 0.0, 0.0, 0.0, 0.0, 0.0, 0.0, 0.0, 0.0)",0.603515625,0.12548828125,0.3466796875,"(0.0, 0.0, 0.0, 0.0, 0.0, 0.0, 0.0, 0.0, 0.0)"
2022/11/28/23:10:23.026575,12448,1669698623,26218414,RU_myo,0.8678859451811878,0.15033427688172624,-0.22693578621447752,-0.41554029923296476,"(0.0, 0.0, 0.0, 0.0, 0.0, 0.0, 0.0, 0.0, 0.0)",-193.375,-216.0625,-224.0,"(0.0, 0.0, 0.0, 0.0, 0.0, 0.0, 0.0, 0.0, 0.0)",0.6357421875,0.05029296875,0.47509765625,"(0.0, 0.0, 0.0, 0.0, 0.0, 0.0, 0.0, 0.0, 0.0)"
2022/11/28/23:10:23.049682,12449,1669698623,49134492,RU_myo,0.8468679116939728,0.11792063462290128,-0.24237207043868583,-0.45843782953033724,"(0.0, 0.0, 0.0, 0.0, 0.0, 0.0, 0.0, 0.0, 0.0)",-156.5625,-211.75,-213.8125,"(0.0, 0.0, 0.0, 0.0, 0.0, 0.0, 0.0, 0.0, 0.0)",0.70458984375,-0.0576171875,0.63427734375,"(0.0, 0.0, 0.0, 0.0, 0.0, 0.0, 0.0, 0.0, 0.0)"
2022/11/28/23:10:23.070226,12450,1669698623,69715976,RU_myo,0.823176308709553,0.08947701257271483,-0.26324307996324625,-0.49505323941152113,"(0.0, 0.0, 0.0, 0.0, 0.0, 0.0, 0.0, 0.0, 0.0)",-111.3125,-228.1875,-192.125,"(0.0, 0.0, 0.0, 0.0, 0.0, 0.0, 0.0, 0.0, 0.0)",0.65283203125,-0.1708984375,0.54736328125,"(0.0, 0.0, 0.0, 0.0, 0.0, 0.0, 0.0, 0.0, 0.0)"
2022/11/28/23:10:23.086950,12451,1669698623,86577892,RU_myo,0.7959641606474066,0.06408729151750456,-0.2915666586467803,-0.5266144297266946,"(0.0, 0.0, 0.0, 0.0, 0.0, 0.0, 0.0, 0.0, 0.0)",-67.0,-255.75,-180.1875,"(0.0, 0.0, 0.0, 0.0, 0.0, 0.0, 0.0, 0.0, 0.0)",0.8330078125,-0.10986328125,0.59423828125,"(0.0, 0.0, 0.0, 0.0, 0.0, 0.0, 0.0, 0.0, 0.0)"
2022/11/28/23:10:23.109265,12452,1669698623,108833551,RU_myo,0.768194461930455,0.04303012042435808,-0.324343347425587,-0.5502972563773226,"(0.0, 0.0, 0.0, 0.0, 0.0, 0.0, 0.0, 0.0, 0.0)",-19.4375,-263.0,-151.125,"(0.0, 0.0, 0.0, 0.0, 0.0, 0.0, 0.0, 0.0, 0.0)",0.873046875,-0.06591796875,0.78369140625,"(0.0, 0.0, 0.0, 0.0, 0.0, 0.0, 0.0, 0.0, 0.0)"
2022/11/28/23:10:23.129962,12453,1669698623,129596471,RU_myo,0.743584123075397,0.025207275944360088,-0.35918842356551844,-0.563410082911351,"(0.0, 0.0, 0.0, 0.0, 0.0, 0.0, 0.0, 0.0, 0.0)",22.3125,-256.1875,-101.3125,"(0.0, 0.0, 0.0, 0.0, 0.0, 0.0, 0.0, 0.0, 0.0)",0.92333984375,-0.08056640625,1.03662109375,"(0.0, 0.0, 0.0, 0.0, 0.0, 0.0, 0.0, 0.0, 0.0)"
2022/11/28/23:10:23.146895,12454,1669698623,146507501,RU_myo,0.724079967087751,0.014282619261445986,-0.3914292193318509,-0.5677035972252527,"(0.0, 0.0, 0.0, 0.0, 0.0, 0.0, 0.0, 0.0, 0.0)",62.375,-214.5625,-61.375,"(0.0, 0.0, 0.0, 0.0, 0.0, 0.0, 0.0, 0.0, 0.0)",0.80517578125,-0.1259765625,1.1103515625,"(0.0, 0.0, 0.0, 0.0, 0.0, 0.0, 0.0, 0.0, 0.0)"
2022/11/28/23:10:23.170003,12455,1669698623,168829202,RU_myo,0.7071478448767019,0.0043334625398106195,-0.4256558838399896,-0.5645708238485666,"(0.0, 0.0, 0.0, 0.0, 0.0, 0.0, 0.0, 0.0, 0.0)",85.5,-213.5,-22.4375,"(0.0, 0.0, 0.0, 0.0, 0.0, 0.0, 0.0, 0.0, 0.0)",0.65576171875,-0.0068359375,0.82470703125,"(0.0, 0.0, 0.0, 0.0, 0.0, 0.0, 0.0, 0.0, 0.0)"
2022/11/28/23:10:23.190123,12456,1669698623,189728260,RU_myo,0.6921954961426295,-0.008117626398639426,-0.4575167480015123,-0.5581020736026986,"(0.0, 0.0, 0.0, 0.0, 0.0, 0.0, 0.0, 0.0, 0.0)",74.0625,-208.1875,5.8125,"(0.0, 0.0, 0.0, 0.0, 0.0, 0.0, 0.0, 0.0, 0.0)",0.91015625,0.40380859375,1.04443359375,"(0.0, 0.0, 0.0, 0.0, 0.0, 0.0, 0.0, 0.0, 0.0)"
2022/11/28/23:10:23.206590,12457,1669698623,206145048,RU_myo,0.6810072370557975,-0.019347490065127065,-0.48094076250221224,-0.5518612150437822,"(0.0, 0.0, 0.0, 0.0, 0.0, 0.0, 0.0, 0.0, 0.0)",52.8125,-167.0,16.8125,"(0.0, 0.0, 0.0, 0.0, 0.0, 0.0, 0.0, 0.0, 0.0)",0.912109375,0.63916015625,1.44189453125,"(0.0, 0.0, 0.0, 0.0, 0.0, 0.0, 0.0, 0.0, 0.0)"
2022/11/28/23:10:23.229534,12458,1669698623,229033946,RU_myo,0.6732150385547118,-0.031188838141564618,-0.5007303876974484,-0.5432106838746088,"(0.0, 0.0, 0.0, 0.0, 0.0, 0.0, 0.0, 0.0, 0.0)",45.125,-145.125,39.6875,"(0.0, 0.0, 0.0, 0.0, 0.0, 0.0, 0.0, 0.0, 0.0)",0.5693359375,0.3896484375,1.0546875,"(0.0, 0.0, 0.0, 0.0, 0.0, 0.0, 0.0, 0.0, 0.0)"
2022/11/28/23:10:23.250836,12459,1669698623,250062942,RU_myo,0.6647734598584805,-0.05041341148027037,-0.5163407519649968,-0.5375192674415753,"(0.0, 0.0, 0.0, 0.0, 0.0, 0.0, 0.0, 0.0, 0.0)",-6.4375,-148.4375,44.5625,"(0.0, 0.0, 0.0, 0.0, 0.0, 0.0, 0.0, 0.0, 0.0)",0.78076171875,0.244140625,0.71435546875,"(0.0, 0.0, 0.0, 0.0, 0.0, 0.0, 0.0, 0.0, 0.0)"
2022/11/28/23:10:23.267227,12460,1669698623,266654968,RU_myo,0.6582589504658942,-0.06652779378839357,-0.5264850910263146,-0.5339313211567587,"(0.0, 0.0, 0.0, 0.0, 0.0, 0.0, 0.0, 0.0, 0.0)",-15.125,-113.25,32.625,"(0.0, 0.0, 0.0, 0.0, 0.0, 0.0, 0.0, 0.0, 0.0)",0.87939453125,0.109375,0.8662109375,"(0.0, 0.0, 0.0, 0.0, 0.0, 0.0, 0.0, 0.0, 0.0)"
2022/11/28/23:10:23.289426,12461,1669698623,289001703,RU_myo,0.6590458301799884,-0.07342397978389759,-0.5384425184152489,-0.5199491968237935,"(0.0, 0.0, 0.0, 0.0, 0.0, 0.0, 0.0, 0.0, 0.0)",80.8125,-94.6875,48.875,"(0.0, 0.0, 0.0, 0.0, 0.0, 0.0, 0.0, 0.0, 0.0)",0.693359375,-0.00146484375,0.83203125,"(0.0, 0.0, 0.0, 0.0, 0.0, 0.0, 0.0, 0.0, 0.0)"
2022/11/28/23:10:23.310209,12462,1669698623,309703588,RU_myo,0.6617419462642794,-0.07690415534892013,-0.5565175305328998,-0.4964590473080288,"(0.0, 0.0, 0.0, 0.0, 0.0, 0.0, 0.0, 0.0, 0.0)",123.3125,-85.25,87.625,"(0.0, 0.0, 0.0, 0.0, 0.0, 0.0, 0.0, 0.0, 0.0)",0.6767578125,-0.517578125,0.6904296875,"(0.0, 0.0, 0.0, 0.0, 0.0, 0.0, 0.0, 0.0, 0.0)"
2022/11/28/23:10:23.328128,12463,1669698623,326779842,RU_myo,0.6697921308357343,-0.07842927721194812,-0.5762263082941651,-0.4617256670104183,"(0.0, 0.0, 0.0, 0.0, 0.0, 0.0, 0.0, 0.0, 0.0)",169.125,-67.3125,137.875,"(0.0, 0.0, 0.0, 0.0, 0.0, 0.0, 0.0, 0.0, 0.0)",0.888671875,-0.435546875,0.27978515625,"(0.0, 0.0, 0.0, 0.0, 0.0, 0.0, 0.0, 0.0, 0.0)"
2022/11/28/23:10:23.349489,12464,1669698623,349079608,RU_myo,0.6797564182206988,-0.06591873320268965,-0.6023629425716149,-0.41321279979834163,"(0.0, 0.0, 0.0, 0.0, 0.0, 0.0, 0.0, 0.0, 0.0)",282.3125,-53.375,155.75,"(0.0, 0.0, 0.0, 0.0, 0.0, 0.0, 0.0, 0.0, 0.0)",1.08447265625,0.2451171875,0.15966796875,"(0.0, 0.0, 0.0, 0.0, 0.0, 0.0, 0.0, 0.0, 0.0)"
2022/11/28/23:10:23.369894,12465,1669698623,369527578,RU_myo,0.6885441462008823,-0.055969770593582935,-0.6237852295162678,-0.36560406309221566,"(0.0, 0.0, 0.0, 0.0, 0.0, 0.0, 0.0, 0.0, 0.0)",254.4375,-44.0,168.1875,"(0.0, 0.0, 0.0, 0.0, 0.0, 0.0, 0.0, 0.0, 0.0)",1.0390625,0.69140625,-0.02001953125,"(0.0, 0.0, 0.0, 0.0, 0.0, 0.0, 0.0, 0.0, 0.0)"
2022/11/28/23:10:23.387370,12466,1669698623,386941432,RU_myo,0.6938403982905734,-0.05883727515412674,-0.6374445038482361,-0.32983053416276026,"(0.0, 0.0, 0.0, 0.0, 0.0, 0.0, 0.0, 0.0, 0.0)",143.625,-47.625,164.9375,"(0.0, 0.0, 0.0, 0.0, 0.0, 0.0, 0.0, 0.0, 0.0)",1.07177734375,0.80615234375,-0.10888671875,"(0.0, 0.0, 0.0, 0.0, 0.0, 0.0, 0.0, 0.0, 0.0)"
2022/11/28/23:10:23.408903,12467,1669698623,408617496,RU_myo,0.6990955012274993,-0.060546772936762645,-0.6484974419890152,-0.29504344795999055,"(0.0, 0.0, 0.0, 0.0, 0.0, 0.0, 0.0, 0.0, 0.0)",142.1875,-39.5,154.625,"(0.0, 0.0, 0.0, 0.0, 0.0, 0.0, 0.0, 0.0, 0.0)",1.14111328125,0.595703125,0.15087890625,"(0.0, 0.0, 0.0, 0.0, 0.0, 0.0, 0.0, 0.0, 0.0)"
2022/11/28/23:10:23.430618,12468,1669698623,430020570,RU_myo,0.7059297967396879,-0.051391396235069796,-0.6603977520943648,-0.25079245502363634,"(0.0, 0.0, 0.0, 0.0, 0.0, 0.0, 0.0, 0.0, 0.0)",224.875,-25.5625,151.875,"(0.0, 0.0, 0.0, 0.0, 0.0, 0.0, 0.0, 0.0, 0.0)",1.2470703125,0.40478515625,0.37158203125,"(0.0, 0.0, 0.0, 0.0, 0.0, 0.0, 0.0, 0.0, 0.0)"
2022/11/28/23:10:23.446541,12469,1669698623,446254730,RU_myo,0.712470838463955,-0.03790322887741935,-0.6690133522148043,-0.20825413354227829,"(0.0, 0.0, 0.0, 0.0, 0.0, 0.0, 0.0, 0.0, 0.0)",230.25,-7.0625,133.5625,"(0.0, 0.0, 0.0, 0.0, 0.0, 0.0, 0.0, 0.0, 0.0)",1.1904296875,0.62890625,0.341796875,"(0.0, 0.0, 0.0, 0.0, 0.0, 0.0, 0.0, 0.0, 0.0)"
2022/11/28/23:10:23.469414,12470,1669698623,468993186,RU_myo,0.7166173855241299,-0.03045669665075725,-0.6730380640639282,-0.18042083226380445,"(0.0, 0.0, 0.0, 0.0, 0.0, 0.0, 0.0, 0.0, 0.0)",141.875,1.25,101.4375,"(0.0, 0.0, 0.0, 0.0, 0.0, 0.0, 0.0, 0.0, 0.0)",1.13037109375,0.9404296875,0.138671875,"(0.0, 0.0, 0.0, 0.0, 0.0, 0.0, 0.0, 0.0, 0.0)"
2022/11/28/23:10:23.490304,12471,1669698623,489778995,RU_myo,0.719034307021674,-0.03039462565968879,-0.673381335147282,-0.1691845428286292,"(0.0, 0.0, 0.0, 0.0, 0.0, 0.0, 0.0, 0.0, 0.0)",42.1875,4.25,73.1875,"(0.0, 0.0, 0.0, 0.0, 0.0, 0.0, 0.0, 0.0, 0.0)",1.11083984375,0.57177734375,0.12744140625,"(0.0, 0.0, 0.0, 0.0, 0.0, 0.0, 0.0, 0.0, 0.0)"
2022/11/28/23:10:23.506448,12472,1669698623,506139278,RU_myo,0.7214201490110412,-0.028380741902718627,-0.6736306416780763,-0.1580166468519108,"(0.0, 0.0, 0.0, 0.0, 0.0, 0.0, 0.0, 0.0, 0.0)",50.1875,11.375,54.875,"(0.0, 0.0, 0.0, 0.0, 0.0, 0.0, 0.0, 0.0, 0.0)",1.02294921875,0.3876953125,0.04736328125,"(0.0, 0.0, 0.0, 0.0, 0.0, 0.0, 0.0, 0.0, 0.0)"
2022/11/28/23:10:23.529501,12473,1669698623,529083728,RU_myo,0.7230854328689073,-0.0252686223691844,-0.6740130358041143,-0.14904825078634856,"(0.0, 0.0, 0.0, 0.0, 0.0, 0.0, 0.0, 0.0, 0.0)",46.0,11.1875,38.625,"(0.0, 0.0, 0.0, 0.0, 0.0, 0.0, 0.0, 0.0, 0.0)",1.009765625,0.3388671875,0.01904296875,"(0.0, 0.0, 0.0, 0.0, 0.0, 0.0, 0.0, 0.0, 0.0)"
2022/11/28/23:10:23.550936,12474,1669698623,550405263,RU_myo,0.7240144608204995,-0.022522452878331167,-0.6743307842813082,-0.14343567551240716,"(0.0, 0.0, 0.0, 0.0, 0.0, 0.0, 0.0, 0.0, 0.0)",31.25,10.0,27.1875,"(0.0, 0.0, 0.0, 0.0, 0.0, 0.0, 0.0, 0.0, 0.0)",1.0732421875,0.375,0.00634765625,"(0.0, 0.0, 0.0, 0.0, 0.0, 0.0, 0.0, 0.0, 0.0)"
2022/11/28/23:10:23.566436,12475,1669698623,566091299,RU_myo,0.7247878931062913,-0.02209458672037705,-0.6740679992813374,-0.14080721426494436,"(0.0, 0.0, 0.0, 0.0, 0.0, 0.0, 0.0, 0.0, 0.0)",10.4375,7.5625,15.8125,"(0.0, 0.0, 0.0, 0.0, 0.0, 0.0, 0.0, 0.0, 0.0)",1.0517578125,0.25439453125,0.04443359375,"(0.0, 0.0, 0.0, 0.0, 0.0, 0.0, 0.0, 0.0, 0.0)"
2022/11/28/23:10:23.589385,12476,1669698623,588958740,RU_myo,0.7247434679770156,-0.021484731407100346,-0.6743886287416242,-0.13958971797738207,"(0.0, 0.0, 0.0, 0.0, 0.0, 0.0, 0.0, 0.0, 0.0)",7.125,0.125,4.3125,"(0.0, 0.0, 0.0, 0.0, 0.0, 0.0, 0.0, 0.0, 0.0)",1.05078125,0.19384765625,0.07470703125,"(0.0, 0.0, 0.0, 0.0, 0.0, 0.0, 0.0, 0.0, 0.0)"
2022/11/28/23:10:23.610337,12477,1669698623,609958887,RU_myo,0.7242201551292883,-0.019774762368269798,-0.6749663488601719,-0.139766067355981,"(0.0, 0.0, 0.0, 0.0, 0.0, 0.0, 0.0, 0.0, 0.0)",6.5,-2.3125,-2.4375,"(0.0, 0.0, 0.0, 0.0, 0.0, 0.0, 0.0, 0.0, 0.0)",1.00830078125,0.2421875,0.08251953125,"(0.0, 0.0, 0.0, 0.0, 0.0, 0.0, 0.0, 0.0, 0.0)"
2022/11/28/23:10:23.625939,12478,1669698623,625649213,RU_myo,0.7236506266228829,-0.017822704366892865,-0.6755537394957885,-0.14014016858351375,"(0.0, 0.0, 0.0, 0.0, 0.0, 0.0, 0.0, 0.0, 0.0)",6.6875,-3.9375,-7.125,"(0.0, 0.0, 0.0, 0.0, 0.0, 0.0, 0.0, 0.0, 0.0)",0.98046875,0.19775390625,0.0966796875,"(0.0, 0.0, 0.0, 0.0, 0.0, 0.0, 0.0, 0.0, 0.0)"
2022/11/28/23:10:23.649154,12479,1669698623,648763895,RU_myo,0.7234111370476883,-0.016113781655466567,-0.6758022367019917,-0.14038521896807993,"(0.0, 0.0, 0.0, 0.0, 0.0, 0.0, 0.0, 0.0, 0.0)",7.3125,-4.0,-10.8125,"(0.0, 0.0, 0.0, 0.0, 0.0, 0.0, 0.0, 0.0, 0.0)",0.96728515625,0.1240234375,0.13525390625,"(0.0, 0.0, 0.0, 0.0, 0.0, 0.0, 0.0, 0.0, 0.0)"
2022/11/28/23:10:23.672119,12480,1669698623,671332120,RU_myo,0.7233099998240046,-0.014892214999329773,-0.6758258060966335,-0.14092673948136247,"(0.0, 0.0, 0.0, 0.0, 0.0, 0.0, 0.0, 0.0, 0.0)",3.375,-1.875,-7.6875,"(0.0, 0.0, 0.0, 0.0, 0.0, 0.0, 0.0, 0.0, 0.0)",0.9287109375,0.15087890625,0.1142578125,"(0.0, 0.0, 0.0, 0.0, 0.0, 0.0, 0.0, 0.0, 0.0)"
2022/11/28/23:10:23.687354,12481,1669698623,686916112,RU_myo,0.722831850789821,-0.014831388984372753,-0.6760183719790642,-0.14245457567706174,"(0.0, 0.0, 0.0, 0.0, 0.0, 0.0, 0.0, 0.0, 0.0)",-5.875,-2.5,-7.1875,"(0.0, 0.0, 0.0, 0.0, 0.0, 0.0, 0.0, 0.0, 0.0)",0.91064453125,0.1552734375,0.07861328125,"(0.0, 0.0, 0.0, 0.0, 0.0, 0.0, 0.0, 0.0, 0.0)"
2022/11/28/23:10:23.709186,12482,1669698623,708898544,RU_myo,0.721980706535392,-0.015563875235989937,-0.6765097769243626,-0.1443473134632008,"(0.0, 0.0, 0.0, 0.0, 0.0, 0.0, 0.0, 0.0, 0.0)",-9.6875,-5.375,-7.6875,"(0.0, 0.0, 0.0, 0.0, 0.0, 0.0, 0.0, 0.0, 0.0)",0.927734375,0.13427734375,0.07666015625,"(0.0, 0.0, 0.0, 0.0, 0.0, 0.0, 0.0, 0.0, 0.0)"
2022/11/28/23:10:23.732057,12483,1669698623,731503009,RU_myo,0.7208218172500979,-0.01733390314132327,-0.677242919915926,-0.1464836885182248,"(0.0, 0.0, 0.0, 0.0, 0.0, 0.0, 0.0, 0.0, 0.0)",-14.875,-9.1875,-5.1875,"(0.0, 0.0, 0.0, 0.0, 0.0, 0.0, 0.0, 0.0, 0.0)",0.939453125,0.134765625,0.080078125,"(0.0, 0.0, 0.0, 0.0, 0.0, 0.0, 0.0, 0.0, 0.0)"
2022/11/28/23:10:23.745841,12484,1669698623,745504140,RU_myo,0.7200928472077635,-0.020080568463413644,-0.6774903037808251,-0.1485595855317593,"(0.0, 0.0, 0.0, 0.0, 0.0, 0.0, 0.0, 0.0, 0.0)",-18.75,-8.5,-1.4375,"(0.0, 0.0, 0.0, 0.0, 0.0, 0.0, 0.0, 0.0, 0.0)",0.9580078125,0.1298828125,0.1142578125,"(0.0, 0.0, 0.0, 0.0, 0.0, 0.0, 0.0, 0.0, 0.0)"
2022/11/28/23:10:23.769723,12485,1669698623,769347190,RU_myo,0.7197169278358324,-0.023009945878062148,-0.6772980620924552,-0.1508158521609856,"(0.0, 0.0, 0.0, 0.0, 0.0, 0.0, 0.0, 0.0, 0.0)",-20.4375,-6.5,-0.125,"(0.0, 0.0, 0.0, 0.0, 0.0, 0.0, 0.0, 0.0, 0.0)",0.9580078125,0.13720703125,0.13525390625,"(0.0, 0.0, 0.0, 0.0, 0.0, 0.0, 0.0, 0.0, 0.0)"
2022/11/28/23:10:23.791939,12486,1669698623,791385173,RU_myo,0.719054642722678,-0.025451641288121274,-0.6774897321298469,-0.15270984772872764,"(0.0, 0.0, 0.0, 0.0, 0.0, 0.0, 0.0, 0.0, 0.0)",-16.75,-5.75,-1.5625,"(0.0, 0.0, 0.0, 0.0, 0.0, 0.0, 0.0, 0.0, 0.0)",0.9677734375,0.12939453125,0.0859375,"(0.0, 0.0, 0.0, 0.0, 0.0, 0.0, 0.0, 0.0, 0.0)"
2022/11/28/23:10:23.806607,12487,1669698623,806308031,RU_myo,0.7163149407604144,-0.026672599617612567,-0.6796324868240639,-0.1558241346081576,"(0.0, 0.0, 0.0, 0.0, 0.0, 0.0, 0.0, 0.0, 0.0)",-16.875,-14.75,-7.875,"(0.0, 0.0, 0.0, 0.0, 0.0, 0.0, 0.0, 0.0, 0.0)",0.9365234375,0.20849609375,-0.0078125,"(0.0, 0.0, 0.0, 0.0, 0.0, 0.0, 0.0, 0.0, 0.0)"
2022/11/28/23:10:23.829463,12488,1669698623,829086780,RU_myo,0.7123572670236558,-0.02929753133162152,-0.6822662608851361,-0.1618688606072089,"(0.0, 0.0, 0.0, 0.0, 0.0, 0.0, 0.0, 0.0, 0.0)",-34.4375,-19.9375,-14.25,"(0.0, 0.0, 0.0, 0.0, 0.0, 0.0, 0.0, 0.0, 0.0)",1.00048828125,0.25,-0.04052734375,"(0.0, 0.0, 0.0, 0.0, 0.0, 0.0, 0.0, 0.0, 0.0)"
2022/11/28/23:10:23.852430,12489,1669698623,851934671,RU_myo,0.7086041497356061,-0.03643726764790326,-0.683214026885476,-0.17254297427239954,"(0.0, 0.0, 0.0, 0.0, 0.0, 0.0, 0.0, 0.0, 0.0)",-72.0625,-17.4375,-14.6875,"(0.0, 0.0, 0.0, 0.0, 0.0, 0.0, 0.0, 0.0, 0.0)",1.07373046875,0.2705078125,-0.01513671875,"(0.0, 0.0, 0.0, 0.0, 0.0, 0.0, 0.0, 0.0, 0.0)"
2022/11/28/23:10:23.866111,12490,1669698623,865781068,RU_myo,0.703801119198245,-0.045105283764417914,-0.6840866311658945,-0.1861584783240523,"(0.0, 0.0, 0.0, 0.0, 0.0, 0.0, 0.0, 0.0, 0.0)",-91.1875,-17.5,-19.9375,"(0.0, 0.0, 0.0, 0.0, 0.0, 0.0, 0.0, 0.0, 0.0)",1.01318359375,0.29150390625,-0.09375,"(0.0, 0.0, 0.0, 0.0, 0.0, 0.0, 0.0, 0.0, 0.0)"
2022/11/28/23:10:23.889296,12491,1669698623,888666152,RU_myo,0.6984097787318551,-0.057310738637526164,-0.6839447680214251,-0.20287635274881466,"(0.0, 0.0, 0.0, 0.0, 0.0, 0.0, 0.0, 0.0, 0.0)",-117.4375,-25.1875,-22.0625,"(0.0, 0.0, 0.0, 0.0, 0.0, 0.0, 0.0, 0.0, 0.0)",0.931640625,0.37939453125,-0.17919921875,"(0.0, 0.0, 0.0, 0.0, 0.0, 0.0, 0.0, 0.0, 0.0)"
2022/11/28/23:10:23.912965,12492,1669698623,912499189,RU_myo,0.6920124175669312,-0.07147173584149553,-0.6830403038447281,-0.2224107646510758,"(0.0, 0.0, 0.0, 0.0, 0.0, 0.0, 0.0, 0.0, 0.0)",-137.125,-28.625,-25.5,"(0.0, 0.0, 0.0, 0.0, 0.0, 0.0, 0.0, 0.0, 0.0)",0.91015625,0.44873046875,-0.1123046875,"(0.0, 0.0, 0.0, 0.0, 0.0, 0.0, 0.0, 0.0, 0.0)"
2022/11/28/23:10:23.925861,12493,1669698623,925600290,RU_myo,0.6847302786045903,-0.08532426504048643,-0.6814344915429407,-0.24394927565581134,"(0.0, 0.0, 0.0, 0.0, 0.0, 0.0, 0.0, 0.0, 0.0)",-144.6875,-29.9375,-37.0,"(0.0, 0.0, 0.0, 0.0, 0.0, 0.0, 0.0, 0.0, 0.0)",0.904296875,0.3896484375,-0.005859375,"(0.0, 0.0, 0.0, 0.0, 0.0, 0.0, 0.0, 0.0, 0.0)"
2022/11/28/23:10:23.948957,12494,1669698623,948526859,RU_myo,0.6753911611195288,-0.09911758952269246,-0.6794193390188501,-0.2690944902743541,"(0.0, 0.0, 0.0, 0.0, 0.0, 0.0, 0.0, 0.0, 0.0)",-160.125,-34.75,-54.0625,"(0.0, 0.0, 0.0, 0.0, 0.0, 0.0, 0.0, 0.0, 0.0)",0.98046875,0.3984375,0.02294921875,"(0.0, 0.0, 0.0, 0.0, 0.0, 0.0, 0.0, 0.0, 0.0)"
2022/11/28/23:10:23.972511,12495,1669698623,971810817,RU_myo,0.6652733976587641,-0.11108234713201383,-0.6767478379119611,-0.29510063097982797,"(0.0, 0.0, 0.0, 0.0, 0.0, 0.0, 0.0, 0.0, 0.0)",-157.5625,-32.3125,-67.875,"(0.0, 0.0, 0.0, 0.0, 0.0, 0.0, 0.0, 0.0, 0.0)",0.9794921875,0.26416015625,0.03466796875,"(0.0, 0.0, 0.0, 0.0, 0.0, 0.0, 0.0, 0.0, 0.0)"
2022/11/28/23:10:23.992655,12496,1669698623,992201328,RU_myo,0.6548913531044525,-0.11639122184251546,-0.6751545338342454,-0.31896199546354786,"(0.0, 0.0, 0.0, 0.0, 0.0, 0.0, 0.0, 0.0, 0.0)",-122.125,-28.1875,-85.875,"(0.0, 0.0, 0.0, 0.0, 0.0, 0.0, 0.0, 0.0, 0.0)",1.08935546875,0.3837890625,0.0810546875,"(0.0, 0.0, 0.0, 0.0, 0.0, 0.0, 0.0, 0.0, 0.0)"
2022/11/28/23:10:24.009107,12497,1669698624,8759737,RU_myo,0.6452578908269265,-0.11883438454786473,-0.6721131189733366,-0.34319760878923644,"(0.0, 0.0, 0.0, 0.0, 0.0, 0.0, 0.0, 0.0, 0.0)",-114.375,-16.6875,-97.125,"(0.0, 0.0, 0.0, 0.0, 0.0, 0.0, 0.0, 0.0, 0.0)",1.11083984375,0.3623046875,0.2373046875,"(0.0, 0.0, 0.0, 0.0, 0.0, 0.0, 0.0, 0.0, 0.0)"
2022/11/28/23:10:24.031882,12498,1669698624,31505584,RU_myo,0.6361448530666153,-0.11730503766612632,-0.6681870719920661,-0.36753950927440826,"(0.0, 0.0, 0.0, 0.0, 0.0, 0.0, 0.0, 0.0, 0.0)",-100.375,-5.75,-110.5,"(0.0, 0.0, 0.0, 0.0, 0.0, 0.0, 0.0, 0.0, 0.0)",1.14208984375,0.4521484375,0.37158203125,"(0.0, 0.0, 0.0, 0.0, 0.0, 0.0, 0.0, 0.0, 0.0)"
2022/11/28/23:10:24.052734,12499,1669698624,52163600,RU_myo,0.6266846900142005,-0.11425338329826483,-0.6643419215820581,-0.3909760541713058,"(0.0, 0.0, 0.0, 0.0, 0.0, 0.0, 0.0, 0.0, 0.0)",-90.75,-5.875,-115.75,"(0.0, 0.0, 0.0, 0.0, 0.0, 0.0, 0.0, 0.0, 0.0)",1.0966796875,0.37158203125,0.4765625,"(0.0, 0.0, 0.0, 0.0, 0.0, 0.0, 0.0, 0.0, 0.0)"
2022/11/28/23:10:24.069182,12500,1669698624,68755149,RU_myo,0.6187049454973386,-0.1093735091576631,-0.6600862173773027,-0.41173755177321164,"(0.0, 0.0, 0.0, 0.0, 0.0, 0.0, 0.0, 0.0, 0.0)",-73.8125,4.4375,-113.3125,"(0.0, 0.0, 0.0, 0.0, 0.0, 0.0, 0.0, 0.0, 0.0)",1.1357421875,0.18701171875,0.44482421875,"(0.0, 0.0, 0.0, 0.0, 0.0, 0.0, 0.0, 0.0, 0.0)"
2022/11/28/23:10:24.092262,12501,1669698624,91410398,RU_myo,0.6129104108932903,-0.10272139230565701,-0.6560619405190179,-0.4282194227073616,"(0.0, 0.0, 0.0, 0.0, 0.0, 0.0, 0.0, 0.0, 0.0)",-47.3125,10.5625,-100.5625,"(0.0, 0.0, 0.0, 0.0, 0.0, 0.0, 0.0, 0.0, 0.0)",1.01708984375,0.12841796875,0.6357421875,"(0.0, 0.0, 0.0, 0.0, 0.0, 0.0, 0.0, 0.0, 0.0)"
2022/11/28/23:10:24.112963,12502,1669698624,112162113,RU_myo,0.6154812418252873,-0.09356730897641466,-0.6467924156706237,-0.4405537091922772,"(0.0, 0.0, 0.0, 0.0, 0.0, 0.0, 0.0, 0.0, 0.0)",-15.5625,37.9375,-86.0625,"(0.0, 0.0, 0.0, 0.0, 0.0, 0.0, 0.0, 0.0, 0.0)",0.982421875,0.181640625,0.69970703125,"(0.0, 0.0, 0.0, 0.0, 0.0, 0.0, 0.0, 0.0, 0.0)"
2022/11/28/23:10:24.129161,12503,1669698624,128738880,RU_myo,0.6213199735858714,-0.08398195320767772,-0.6377379571708026,-0.44743582773654456,"(0.0, 0.0, 0.0, 0.0, 0.0, 0.0, 0.0, 0.0, 0.0)",1.0625,66.0625,-64.25,"(0.0, 0.0, 0.0, 0.0, 0.0, 0.0, 0.0, 0.0, 0.0)",0.9716796875,0.1337890625,0.44287109375,"(0.0, 0.0, 0.0, 0.0, 0.0, 0.0, 0.0, 0.0, 0.0)"
2022/11/28/23:10:24.152143,12504,1669698624,151334762,RU_myo,0.6298580971356516,-0.06890598756454948,-0.6280881470564913,-0.4517034667539687,"(0.0, 0.0, 0.0, 0.0, 0.0, 0.0, 0.0, 0.0, 0.0)",32.3125,85.5625,-59.8125,"(0.0, 0.0, 0.0, 0.0, 0.0, 0.0, 0.0, 0.0, 0.0)",0.95166015625,0.27294921875,0.56787109375,"(0.0, 0.0, 0.0, 0.0, 0.0, 0.0, 0.0, 0.0, 0.0)"
2022/11/28/23:10:24.172602,12505,1669698624,171998023,RU_myo,0.6390991722815959,-0.04345703473063664,-0.622436573290776,-0.449707067268723,"(0.0, 0.0, 0.0, 0.0, 0.0, 0.0, 0.0, 0.0, 0.0)",93.5625,111.625,-63.1875,"(0.0, 0.0, 0.0, 0.0, 0.0, 0.0, 0.0, 0.0, 0.0)",0.88037109375,0.22314453125,0.7294921875,"(0.0, 0.0, 0.0, 0.0, 0.0, 0.0, 0.0, 0.0, 0.0)"
2022/11/28/23:10:24.189549,12506,1669698624,189100742,RU_myo,0.6513092531830333,-0.01043706140889314,-0.6190825372538195,-0.43866175640769006,"(0.0, 0.0, 0.0, 0.0, 0.0, 0.0, 0.0, 0.0, 0.0)",160.125,132.9375,-52.75,"(0.0, 0.0, 0.0, 0.0, 0.0, 0.0, 0.0, 0.0, 0.0)",0.919921875,0.07373046875,0.64501953125,"(0.0, 0.0, 0.0, 0.0, 0.0, 0.0, 0.0, 0.0, 0.0)"
2022/11/28/23:10:24.212072,12507,1669698624,211200952,RU_myo,0.6668760969413892,0.02679467385660533,-0.6159112844806478,-0.4185828549170828,"(0.0, 0.0, 0.0, 0.0, 0.0, 0.0, 0.0, 0.0, 0.0)",207.4375,157.3125,-26.9375,"(0.0, 0.0, 0.0, 0.0, 0.0, 0.0, 0.0, 0.0, 0.0)",0.9580078125,0.00927734375,0.47314453125,"(0.0, 0.0, 0.0, 0.0, 0.0, 0.0, 0.0, 0.0, 0.0)"
2022/11/28/23:10:24.233317,12508,1669698624,232490539,RU_myo,0.6821173837961526,0.07092165354072381,-0.6145526071441894,-0.3898859920982304,"(0.0, 0.0, 0.0, 0.0, 0.0, 0.0, 0.0, 0.0, 0.0)",262.625,180.375,-28.6875,"(0.0, 0.0, 0.0, 0.0, 0.0, 0.0, 0.0, 0.0, 0.0)",1.7607421875,-0.13232421875,-0.197265625,"(0.0, 0.0, 0.0, 0.0, 0.0, 0.0, 0.0, 0.0, 0.0)"
2022/11/28/23:10:24.249585,12509,1669698624,249140262,RU_myo,0.7001668393019937,0.12700899516975672,-0.6065427169615772,-0.3545998375474707,"(0.0, 0.0, 0.0, 0.0, 0.0, 0.0, 0.0, 0.0, 0.0)",321.6875,233.6875,-28.875,"(0.0, 0.0, 0.0, 0.0, 0.0, 0.0, 0.0, 0.0, 0.0)",0.87255859375,0.22900390625,0.380859375,"(0.0, 0.0, 0.0, 0.0, 0.0, 0.0, 0.0, 0.0, 0.0)"
2022/11/28/23:10:24.271771,12510,1669698624,271422386,RU_myo,0.7142797149809605,0.18523788216416434,-0.5968504941296089,-0.31505698442550784,"(0.0, 0.0, 0.0, 0.0, 0.0, 0.0, 0.0, 0.0, 0.0)",343.6875,236.3125,-29.125,"(0.0, 0.0, 0.0, 0.0, 0.0, 0.0, 0.0, 0.0, 0.0)",0.85986328125,0.212890625,0.23583984375,"(0.0, 0.0, 0.0, 0.0, 0.0, 0.0, 0.0, 0.0, 0.0)"
2022/11/28/23:10:24.292829,12511,1669698624,292172431,RU_myo,0.7206465315571461,0.24292141912403162,-0.5873449287011447,-0.2769182106949074,"(0.0, 0.0, 0.0, 0.0, 0.0, 0.0, 0.0, 0.0, 0.0)",343.25,207.25,-44.625,"(0.0, 0.0, 0.0, 0.0, 0.0, 0.0, 0.0, 0.0, 0.0)",0.84765625,0.41064453125,0.11865234375,"(0.0, 0.0, 0.0, 0.0, 0.0, 0.0, 0.0, 0.0, 0.0)"
2022/11/28/23:10:24.308954,12512,1669698624,308577775,RU_myo,0.7225296604502721,0.2963238301643919,-0.5729334281674865,-0.2487777408342042,"(0.0, 0.0, 0.0, 0.0, 0.0, 0.0, 0.0, 0.0, 0.0)",288.6875,191.125,-79.875,"(0.0, 0.0, 0.0, 0.0, 0.0, 0.0, 0.0, 0.0, 0.0)",0.71875,0.8203125,0.08544921875,"(0.0, 0.0, 0.0, 0.0, 0.0, 0.0, 0.0, 0.0, 0.0)"
2022/11/28/23:10:24.331715,12513,1669698624,331403970,RU_myo,0.7273046081188631,0.335392650353571,-0.5554273190568693,-0.2236968268509259,"(0.0, 0.0, 0.0, 0.0, 0.0, 0.0, 0.0, 0.0, 0.0)",208.5,190.6875,-52.0625,"(0.0, 0.0, 0.0, 0.0, 0.0, 0.0, 0.0, 0.0, 0.0)",0.95361328125,0.63818359375,-0.09033203125,"(0.0, 0.0, 0.0, 0.0, 0.0, 0.0, 0.0, 0.0, 0.0)"
2022/11/28/23:10:24.352623,12514,1669698624,352164745,RU_myo,0.73255880210757,0.36658458302433466,-0.536387831438204,-0.20312911959789973,"(0.0, 0.0, 0.0, 0.0, 0.0, 0.0, 0.0, 0.0, 0.0)",157.5,179.125,-46.6875,"(0.0, 0.0, 0.0, 0.0, 0.0, 0.0, 0.0, 0.0, 0.0)",0.7802734375,0.63037109375,-0.1298828125,"(0.0, 0.0, 0.0, 0.0, 0.0, 0.0, 0.0, 0.0, 0.0)"
2022/11/28/23:10:24.369063,12515,1669698624,368705272,RU_myo,0.7359831478585017,0.3917959716456894,-0.5199734978111276,-0.18561326527099883,"(0.0, 0.0, 0.0, 0.0, 0.0, 0.0, 0.0, 0.0, 0.0)",128.625,150.1875,-36.75,"(0.0, 0.0, 0.0, 0.0, 0.0, 0.0, 0.0, 0.0, 0.0)",0.68408203125,0.59814453125,-0.2490234375,"(0.0, 0.0, 0.0, 0.0, 0.0, 0.0, 0.0, 0.0, 0.0)"
2022/11/28/23:10:24.392007,12516,1669698624,391502380,RU_myo,0.7389354129694586,0.412160803153775,-0.5049931119938301,-0.1705282517416922,"(0.0, 0.0, 0.0, 0.0, 0.0, 0.0, 0.0, 0.0, 0.0)",104.375,131.0625,-29.6875,"(0.0, 0.0, 0.0, 0.0, 0.0, 0.0, 0.0, 0.0, 0.0)",0.6279296875,0.60693359375,-0.166015625,"(0.0, 0.0, 0.0, 0.0, 0.0, 0.0, 0.0, 0.0, 0.0)"
2022/11/28/23:10:24.412662,12517,1669698624,412189483,RU_myo,0.7401328241260016,0.4295773392873824,-0.4929335879631856,-0.15710884787236748,"(0.0, 0.0, 0.0, 0.0, 0.0, 0.0, 0.0, 0.0, 0.0)",94.125,106.5625,-23.5,"(0.0, 0.0, 0.0, 0.0, 0.0, 0.0, 0.0, 0.0, 0.0)",0.59716796875,0.521484375,-0.1884765625,"(0.0, 0.0, 0.0, 0.0, 0.0, 0.0, 0.0, 0.0, 0.0)"
2022/11/28/23:10:24.428792,12518,1669698624,428450584,RU_myo,0.7376936408796501,0.4455703771654348,-0.48646519260390625,-0.1436201503383929,"(0.0, 0.0, 0.0, 0.0, 0.0, 0.0, 0.0, 0.0, 0.0)",88.9375,82.375,-14.875,"(0.0, 0.0, 0.0, 0.0, 0.0, 0.0, 0.0, 0.0, 0.0)",0.61572265625,0.61572265625,-0.2021484375,"(0.0, 0.0, 0.0, 0.0, 0.0, 0.0, 0.0, 0.0, 0.0)"
2022/11/28/23:10:24.451984,12519,1669698624,451689481,RU_myo,0.7350669176920577,0.45863097397144575,-0.48194705489466805,-0.13061888265888927,"(0.0, 0.0, 0.0, 0.0, 0.0, 0.0, 0.0, 0.0, 0.0)",81.875,66.6875,-5.125,"(0.0, 0.0, 0.0, 0.0, 0.0, 0.0, 0.0, 0.0, 0.0)",0.67724609375,0.6689453125,-0.12841796875,"(0.0, 0.0, 0.0, 0.0, 0.0, 0.0, 0.0, 0.0, 0.0)"
2022/11/28/23:10:24.472709,12520,1669698624,472099542,RU_myo,0.733406467338679,0.4682668456576519,-0.47809361340411727,-0.11944710857038905,"(0.0, 0.0, 0.0, 0.0, 0.0, 0.0, 0.0, 0.0, 0.0)",61.375,57.3125,2.25,"(0.0, 0.0, 0.0, 0.0, 0.0, 0.0, 0.0, 0.0, 0.0)",0.59130859375,0.63525390625,-0.1201171875,"(0.0, 0.0, 0.0, 0.0, 0.0, 0.0, 0.0, 0.0, 0.0)"
2022/11/28/23:10:24.489414,12521,1669698624,489017248,RU_myo,0.7318941215795547,0.4754168387109625,-0.47523372784741996,-0.11163658980643862,"(0.0, 0.0, 0.0, 0.0, 0.0, 0.0, 0.0, 0.0, 0.0)",41.5625,42.6875,4.9375,"(0.0, 0.0, 0.0, 0.0, 0.0, 0.0, 0.0, 0.0, 0.0)",0.54833984375,0.75341796875,-0.1201171875,"(0.0, 0.0, 0.0, 0.0, 0.0, 0.0, 0.0, 0.0, 0.0)"
2022/11/28/23:10:24.511834,12522,1669698624,511341810,RU_myo,0.7312603246411906,0.47924681321113666,-0.47350952329240936,-0.10662814348953843,"(0.0, 0.0, 0.0, 0.0, 0.0, 0.0, 0.0, 0.0, 0.0)",21.375,27.875,7.6875,"(0.0, 0.0, 0.0, 0.0, 0.0, 0.0, 0.0, 0.0, 0.0)",0.5625,0.81591796875,-0.06640625,"(0.0, 0.0, 0.0, 0.0, 0.0, 0.0, 0.0, 0.0, 0.0)"
2022/11/28/23:10:24.532874,12523,1669698624,532391786,RU_myo,0.7329144141947816,0.47845736949307904,-0.4721707118763183,-0.10473693660545014,"(0.0, 0.0, 0.0, 0.0, 0.0, 0.0, 0.0, 0.0, 0.0)",-7.375,17.5,6.625,"(0.0, 0.0, 0.0, 0.0, 0.0, 0.0, 0.0, 0.0, 0.0)",0.5771484375,0.76904296875,0.02587890625,"(0.0, 0.0, 0.0, 0.0, 0.0, 0.0, 0.0, 0.0, 0.0)"
2022/11/28/23:10:24.548513,12524,1669698624,548210382,RU_myo,0.7354330183048011,0.4759653644900688,-0.4707161952997449,-0.10498338380647838,"(0.0, 0.0, 0.0, 0.0, 0.0, 0.0, 0.0, 0.0, 0.0)",-21.0625,12.6875,0.6875,"(0.0, 0.0, 0.0, 0.0, 0.0, 0.0, 0.0, 0.0, 0.0)",0.55029296875,0.671875,0.05029296875,"(0.0, 0.0, 0.0, 0.0, 0.0, 0.0, 0.0, 0.0, 0.0)"
2022/11/28/23:10:24.572800,12525,1669698624,572175264,RU_myo,0.7360956866790089,0.47449484811298637,-0.47113786115051987,-0.1051042099884953,"(0.0, 0.0, 0.0, 0.0, 0.0, 0.0, 0.0, 0.0, 0.0)",-11.0625,1.25,1.125,"(0.0, 0.0, 0.0, 0.0, 0.0, 0.0, 0.0, 0.0, 0.0)",0.5966796875,0.71630859375,0.044921875,"(0.0, 0.0, 0.0, 0.0, 0.0, 0.0, 0.0, 0.0, 0.0)"
2022/11/28/23:10:24.592514,12526,1669698624,592113494,RU_myo,0.7354202153030751,0.47443118379540233,-0.47253907435276016,-0.10382187619142923,"(0.0, 0.0, 0.0, 0.0, 0.0, 0.0, 0.0, 0.0, 0.0)",4.1875,-2.25,5.375,"(0.0, 0.0, 0.0, 0.0, 0.0, 0.0, 0.0, 0.0, 0.0)",0.6435546875,0.7705078125,0.0673828125,"(0.0, 0.0, 0.0, 0.0, 0.0, 0.0, 0.0, 0.0, 0.0)"
2022/11/28/23:10:24.608402,12527,1669698624,607996225,RU_myo,0.7355667015983995,0.4737144777284192,-0.4733482508418877,-0.10236041478553781,"(0.0, 0.0, 0.0, 0.0, 0.0, 0.0, 0.0, 0.0, 0.0)",3.0,-0.8125,7.125,"(0.0, 0.0, 0.0, 0.0, 0.0, 0.0, 0.0, 0.0, 0.0)",0.63720703125,0.7724609375,0.13623046875,"(0.0, 0.0, 0.0, 0.0, 0.0, 0.0, 0.0, 0.0, 0.0)"
2022/11/28/23:10:24.632569,12528,1669698624,631606817,RU_myo,0.7354734944499732,0.4732054773834558,-0.4741210045549703,-0.10180662147241124,"(0.0, 0.0, 0.0, 0.0, 0.0, 0.0, 0.0, 0.0, 0.0)",1.25,-2.8125,4.125,"(0.0, 0.0, 0.0, 0.0, 0.0, 0.0, 0.0, 0.0, 0.0)",0.5966796875,0.7470703125,0.11572265625,"(0.0, 0.0, 0.0, 0.0, 0.0, 0.0, 0.0, 0.0, 0.0)"
2022/11/28/23:10:24.654181,12529,1669698624,653713226,RU_myo,0.7346724044857201,0.473444698977796,-0.4752146997861441,-0.10137832216090231,"(0.0, 0.0, 0.0, 0.0, 0.0, 0.0, 0.0, 0.0, 0.0)",6.375,-6.75,3.0,"(0.0, 0.0, 0.0, 0.0, 0.0, 0.0, 0.0, 0.0, 0.0)",0.60791015625,0.787109375,0.1279296875,"(0.0, 0.0, 0.0, 0.0, 0.0, 0.0, 0.0, 0.0, 0.0)"
2022/11/28/23:10:24.670010,12530,1669698624,669617414,RU_myo,0.7341447131526954,0.47339760518891794,-0.47620527535893986,-0.10077094458057033,"(0.0, 0.0, 0.0, 0.0, 0.0, 0.0, 0.0, 0.0, 0.0)",6.875,-6.4375,3.0,"(0.0, 0.0, 0.0, 0.0, 0.0, 0.0, 0.0, 0.0, 0.0)",0.626953125,0.77099609375,0.15673828125,"(0.0, 0.0, 0.0, 0.0, 0.0, 0.0, 0.0, 0.0, 0.0)"
2022/11/28/23:10:24.692330,12531,1669698624,691502094,RU_myo,0.7341364809249122,0.47278194057568756,-0.4769323629819807,-0.10028152961087719,"(0.0, 0.0, 0.0, 0.0, 0.0, 0.0, 0.0, 0.0, 0.0)",3.1875,-4.75,3.25,"(0.0, 0.0, 0.0, 0.0, 0.0, 0.0, 0.0, 0.0, 0.0)",0.6064453125,0.73583984375,0.16259765625,"(0.0, 0.0, 0.0, 0.0, 0.0, 0.0, 0.0, 0.0, 0.0)"
2022/11/28/23:10:24.715311,12532,1669698624,713877916,RU_myo,0.7340926566530238,0.47254887734328677,-0.47737080466311627,-0.09961247324002119,"(0.0, 0.0, 0.0, 0.0, 0.0, 0.0, 0.0, 0.0, 0.0)",4.3125,-2.5625,2.1875,"(0.0, 0.0, 0.0, 0.0, 0.0, 0.0, 0.0, 0.0, 0.0)",0.603515625,0.7294921875,0.14794921875,"(0.0, 0.0, 0.0, 0.0, 0.0, 0.0, 0.0, 0.0, 0.0)"
2022/11/28/23:10:24.729456,12533,1669698624,728858947,RU_myo,0.7342246369719242,0.4726162909696242,-0.4773162075916907,-0.0985761733069796,"(0.0, 0.0, 0.0, 0.0, 0.0, 0.0, 0.0, 0.0, 0.0)",5.6875,1.375,2.1875,"(0.0, 0.0, 0.0, 0.0, 0.0, 0.0, 0.0, 0.0, 0.0)",0.6259765625,0.76513671875,0.14990234375,"(0.0, 0.0, 0.0, 0.0, 0.0, 0.0, 0.0, 0.0, 0.0)"
2022/11/28/23:10:24.752576,12534,1669698624,751772880,RU_myo,0.734930625762407,0.47229409369234326,-0.4767496983498182,-0.09759605270277293,"(0.0, 0.0, 0.0, 0.0, 0.0, 0.0, 0.0, 0.0, 0.0)",2.8125,4.1875,1.625,"(0.0, 0.0, 0.0, 0.0, 0.0, 0.0, 0.0, 0.0, 0.0)",0.64013671875,0.77685546875,0.1640625,"(0.0, 0.0, 0.0, 0.0, 0.0, 0.0, 0.0, 0.0, 0.0)"
2022/11/28/23:10:24.774242,12535,1669698624,773772716,RU_myo,0.7361813817244381,0.4713977954612251,-0.4757925437809465,-0.09717276840272826,"(0.0, 0.0, 0.0, 0.0, 0.0, 0.0, 0.0, 0.0, 0.0)",-2.25,5.0625,1.125,"(0.0, 0.0, 0.0, 0.0, 0.0, 0.0, 0.0, 0.0, 0.0)",0.6103515625,0.7646484375,0.17529296875,"(0.0, 0.0, 0.0, 0.0, 0.0, 0.0, 0.0, 0.0, 0.0)"
2022/11/28/23:10:24.788708,12536,1669698624,788355112,RU_myo,0.7375590809465941,0.47022138030557437,-0.47486011666372907,-0.09698621148826034,"(0.0, 0.0, 0.0, 0.0, 0.0, 0.0, 0.0, 0.0, 0.0)",-4.9375,4.8125,0.875,"(0.0, 0.0, 0.0, 0.0, 0.0, 0.0, 0.0, 0.0, 0.0)",0.59814453125,0.740234375,0.16845703125,"(0.0, 0.0, 0.0, 0.0, 0.0, 0.0, 0.0, 0.0, 0.0)"
2022/11/28/23:10:24.812248,12537,1669698624,811784029,RU_myo,0.7393516107733291,0.46889284850662216,-0.4734706880845962,-0.09656189616473265,"(0.0, 0.0, 0.0, 0.0, 0.0, 0.0, 0.0, 0.0, 0.0)",-6.1875,8.125,0.125,"(0.0, 0.0, 0.0, 0.0, 0.0, 0.0, 0.0, 0.0, 0.0)",0.64306640625,0.77197265625,0.1826171875,"(0.0, 0.0, 0.0, 0.0, 0.0, 0.0, 0.0, 0.0, 0.0)"
2022/11/28/23:10:24.834565,12538,1669698624,834157705,RU_myo,0.742075672035437,0.467047461952226,-0.47101480186687505,-0.0966199859213766,"(0.0, 0.0, 0.0, 0.0, 0.0, 0.0, 0.0, 0.0, 0.0)",-11.0625,12.3125,-1.75,"(0.0, 0.0, 0.0, 0.0, 0.0, 0.0, 0.0, 0.0, 0.0)",0.650390625,0.8037109375,0.22802734375,"(0.0, 0.0, 0.0, 0.0, 0.0, 0.0, 0.0, 0.0, 0.0)"
2022/11/28/23:10:24.848483,12539,1669698624,848190784,RU_myo,0.7459426492668495,0.4646195439177857,-0.4670000171459509,-0.09802666678034207,"(0.0, 0.0, 0.0, 0.0, 0.0, 0.0, 0.0, 0.0, 0.0)",-22.1875,18.875,-7.125,"(0.0, 0.0, 0.0, 0.0, 0.0, 0.0, 0.0, 0.0, 0.0)",0.6103515625,0.81201171875,0.2158203125,"(0.0, 0.0, 0.0, 0.0, 0.0, 0.0, 0.0, 0.0, 0.0)"
2022/11/28/23:10:24.879574,12540,1669698624,878858089,RU_myo,0.7509935025756983,0.4614972263471111,-0.4614361898140669,-0.10052716992377887,"(0.0, 0.0, 0.0, 0.0, 0.0, 0.0, 0.0, 0.0, 0.0)",-31.6875,25.125,-15.0,"(0.0, 0.0, 0.0, 0.0, 0.0, 0.0, 0.0, 0.0, 0.0)",0.61083984375,0.7900390625,0.23828125,"(0.0, 0.0, 0.0, 0.0, 0.0, 0.0, 0.0, 0.0, 0.0)"
2022/11/28/23:10:24.894341,12541,1669698624,893840074,RU_myo,0.7562936998785053,0.45837831378319543,-0.4551434202238733,-0.10369970108091199,"(0.0, 0.0, 0.0, 0.0, 0.0, 0.0, 0.0, 0.0, 0.0)",-36.3125,28.6875,-20.625,"(0.0, 0.0, 0.0, 0.0, 0.0, 0.0, 0.0, 0.0, 0.0)",0.6435546875,0.8134765625,0.23046875,"(0.0, 0.0, 0.0, 0.0, 0.0, 0.0, 0.0, 0.0, 0.0)"
2022/11/28/23:10:24.916217,12542,1669698624,915407657,RU_myo,0.7629691143295181,0.45387506673234373,-0.44758820123026855,-0.10742605129759615,"(0.0, 0.0, 0.0, 0.0, 0.0, 0.0, 0.0, 0.0, 0.0)",-47.5625,35.5,-22.4375,"(0.0, 0.0, 0.0, 0.0, 0.0, 0.0, 0.0, 0.0, 0.0)",0.66943359375,0.849609375,0.26904296875,"(0.0, 0.0, 0.0, 0.0, 0.0, 0.0, 0.0, 0.0, 0.0)"
2022/11/28/23:10:24.931674,12543,1669698624,931224584,RU_myo,0.7715036645962924,0.44721577140008184,-0.43824337909821043,-0.11279578893781238,"(0.0, 0.0, 0.0, 0.0, 0.0, 0.0, 0.0, 0.0, 0.0)",-68.0,42.5625,-25.4375,"(0.0, 0.0, 0.0, 0.0, 0.0, 0.0, 0.0, 0.0, 0.0)",0.63232421875,0.865234375,0.28662109375,"(0.0, 0.0, 0.0, 0.0, 0.0, 0.0, 0.0, 0.0, 0.0)"
2022/11/28/23:10:24.954386,12544,1669698624,953938961,RU_myo,0.7819850116440151,0.4378066257042242,-0.4273695794201837,-0.11907998421147935,"(0.0, 0.0, 0.0, 0.0, 0.0, 0.0, 0.0, 0.0, 0.0)",-87.6875,49.8125,-27.0625,"(0.0, 0.0, 0.0, 0.0, 0.0, 0.0, 0.0, 0.0, 0.0)",0.6162109375,0.81640625,0.32666015625,"(0.0, 0.0, 0.0, 0.0, 0.0, 0.0, 0.0, 0.0, 0.0)"
2022/11/28/23:10:24.975150,12545,1669698624,974759340,RU_myo,0.7928017437688417,0.4268885515373993,-0.4163292550810124,-0.12610119351962637,"(0.0, 0.0, 0.0, 0.0, 0.0, 0.0, 0.0, 0.0, 0.0)",-98.125,49.5625,-26.875,"(0.0, 0.0, 0.0, 0.0, 0.0, 0.0, 0.0, 0.0, 0.0)",0.58935546875,0.791015625,0.34326171875,"(0.0, 0.0, 0.0, 0.0, 0.0, 0.0, 0.0, 0.0, 0.0)"
2022/11/28/23:10:24.991939,12546,1669698624,991420984,RU_myo,0.8036480791079812,0.41473294581444003,-0.4053945880941149,-0.1334225488668677,"(0.0, 0.0, 0.0, 0.0, 0.0, 0.0, 0.0, 0.0, 0.0)",-106.4375,48.8125,-23.9375,"(0.0, 0.0, 0.0, 0.0, 0.0, 0.0, 0.0, 0.0, 0.0)",0.59423828125,0.77197265625,0.36279296875,"(0.0, 0.0, 0.0, 0.0, 0.0, 0.0, 0.0, 0.0, 0.0)"
2022/11/28/23:10:25.013888,12547,1669698625,13613462,RU_myo,0.8145921497557439,0.4015586507749917,-0.3943563524330782,-0.1402617083874344,"(0.0, 0.0, 0.0, 0.0, 0.0, 0.0, 0.0, 0.0, 0.0)",-110.9375,50.1875,-19.625,"(0.0, 0.0, 0.0, 0.0, 0.0, 0.0, 0.0, 0.0, 0.0)",0.59228515625,0.76806640625,0.3759765625,"(0.0, 0.0, 0.0, 0.0, 0.0, 0.0, 0.0, 0.0, 0.0)"
2022/11/28/23:10:25.035817,12548,1669698625,35075187,RU_myo,0.82522229512967,0.38850147252221523,-0.38276398023359176,-0.14685538772795756,"(0.0, 0.0, 0.0, 0.0, 0.0, 0.0, 0.0, 0.0, 0.0)",-109.6875,52.75,-19.5625,"(0.0, 0.0, 0.0, 0.0, 0.0, 0.0, 0.0, 0.0, 0.0)",0.546875,0.7734375,0.421875,"(0.0, 0.0, 0.0, 0.0, 0.0, 0.0, 0.0, 0.0, 0.0)"
2022/11/28/23:10:25.052026,12549,1669698625,51499843,RU_myo,0.8351995399212387,0.37572993041180547,-0.37121335879866807,-0.15319722633749702,"(0.0, 0.0, 0.0, 0.0, 0.0, 0.0, 0.0, 0.0, 0.0)",-106.6875,51.8125,-19.625,"(0.0, 0.0, 0.0, 0.0, 0.0, 0.0, 0.0, 0.0, 0.0)",0.51611328125,0.7353515625,0.40673828125,"(0.0, 0.0, 0.0, 0.0, 0.0, 0.0, 0.0, 0.0, 0.0)"
2022/11/28/23:10:25.074352,12550,1669698625,73927164,RU_myo,0.8439056372630961,0.3635398506826993,-0.36140353524047386,-0.15827045547687024,"(0.0, 0.0, 0.0, 0.0, 0.0, 0.0, 0.0, 0.0, 0.0)",-99.375,47.125,-14.25,"(0.0, 0.0, 0.0, 0.0, 0.0, 0.0, 0.0, 0.0, 0.0)",0.5205078125,0.69873046875,0.40087890625,"(0.0, 0.0, 0.0, 0.0, 0.0, 0.0, 0.0, 0.0, 0.0)"
2022/11/28/23:10:25.095834,12551,1669698625,94975471,RU_myo,0.8510113274060608,0.35333174885990715,-0.352843468674922,-0.16259730160006783,"(0.0, 0.0, 0.0, 0.0, 0.0, 0.0, 0.0, 0.0, 0.0)",-83.875,41.0,-12.5625,"(0.0, 0.0, 0.0, 0.0, 0.0, 0.0, 0.0, 0.0, 0.0)",0.4951171875,0.69091796875,0.41943359375,"(0.0, 0.0, 0.0, 0.0, 0.0, 0.0, 0.0, 0.0, 0.0)"
2022/11/28/23:10:25.111864,12552,1669698625,111485958,RU_myo,0.8568331172655536,0.34491836056900155,-0.34540665412493005,-0.16601980901569352,"(0.0, 0.0, 0.0, 0.0, 0.0, 0.0, 0.0, 0.0, 0.0)",-68.8125,35.625,-11.1875,"(0.0, 0.0, 0.0, 0.0, 0.0, 0.0, 0.0, 0.0, 0.0)",0.501953125,0.69384765625,0.478515625,"(0.0, 0.0, 0.0, 0.0, 0.0, 0.0, 0.0, 0.0, 0.0)"
2022/11/28/23:10:25.134233,12553,1669698625,133898258,RU_myo,0.8611101563050363,0.33845022800619695,-0.3394268201880002,-0.16949978055423062,"(0.0, 0.0, 0.0, 0.0, 0.0, 0.0, 0.0, 0.0, 0.0)",-54.625,27.9375,-14.4375,"(0.0, 0.0, 0.0, 0.0, 0.0, 0.0, 0.0, 0.0, 0.0)",0.50146484375,0.6767578125,0.48291015625,"(0.0, 0.0, 0.0, 0.0, 0.0, 0.0, 0.0, 0.0, 0.0)"
2022/11/28/23:10:25.155457,12554,1669698625,154666185,RU_myo,0.864262831917657,0.3331928530676899,-0.33514598941100665,-0.1723642822977022,"(0.0, 0.0, 0.0, 0.0, 0.0, 0.0, 0.0, 0.0, 0.0)",-44.0625,22.0,-14.0,"(0.0, 0.0, 0.0, 0.0, 0.0, 0.0, 0.0, 0.0, 0.0)",0.521484375,0.62841796875,0.45703125,"(0.0, 0.0, 0.0, 0.0, 0.0, 0.0, 0.0, 0.0, 0.0)"
2022/11/28/23:10:25.171740,12555,1669698625,171056747,RU_myo,0.8667181944794571,0.3299022423353145,-0.33118400867926295,-0.17401504031415016,"(0.0, 0.0, 0.0, 0.0, 0.0, 0.0, 0.0, 0.0, 0.0)",-29.875,20.3125,-8.625,"(0.0, 0.0, 0.0, 0.0, 0.0, 0.0, 0.0, 0.0, 0.0)",0.45458984375,0.62939453125,0.48291015625,"(0.0, 0.0, 0.0, 0.0, 0.0, 0.0, 0.0, 0.0, 0.0)"
2022/11/28/23:10:25.194150,12556,1669698625,193855285,RU_myo,0.8681404981497102,0.32856642772550726,-0.3283222765624194,-0.1748732705616902,"(0.0, 0.0, 0.0, 0.0, 0.0, 0.0, 0.0, 0.0, 0.0)",-11.8125,15.1875,-9.0625,"(0.0, 0.0, 0.0, 0.0, 0.0, 0.0, 0.0, 0.0, 0.0)",0.45849609375,0.58935546875,0.5283203125,"(0.0, 0.0, 0.0, 0.0, 0.0, 0.0, 0.0, 0.0, 0.0)"
2022/11/28/23:10:25.215428,12557,1669698625,214861154,RU_myo,0.8683468784502422,0.3297728392680578,-0.32659901220125437,-0.17480462921778966,"(0.0, 0.0, 0.0, 0.0, 0.0, 0.0, 0.0, 0.0, 0.0)",5.375,11.125,-7.3125,"(0.0, 0.0, 0.0, 0.0, 0.0, 0.0, 0.0, 0.0, 0.0)",0.44384765625,0.60107421875,0.52783203125,"(0.0, 0.0, 0.0, 0.0, 0.0, 0.0, 0.0, 0.0, 0.0)"
2022/11/28/23:10:25.231685,12558,1669698625,231216669,RU_myo,0.8678573849819355,0.33215274555676866,-0.32568303018943723,-0.17443817471540699,"(0.0, 0.0, 0.0, 0.0, 0.0, 0.0, 0.0, 0.0, 0.0)",13.875,7.1875,-6.5,"(0.0, 0.0, 0.0, 0.0, 0.0, 0.0, 0.0, 0.0, 0.0)",0.43896484375,0.6259765625,0.5419921875,"(0.0, 0.0, 0.0, 0.0, 0.0, 0.0, 0.0, 0.0, 0.0)"
2022/11/28/23:10:25.254056,12559,1669698625,253711462,RU_myo,0.8668904833835117,0.33526926883233327,-0.3252594089946303,-0.17407390400688413,"(0.0, 0.0, 0.0, 0.0, 0.0, 0.0, 0.0, 0.0, 0.0)",17.0625,4.5625,-5.6875,"(0.0, 0.0, 0.0, 0.0, 0.0, 0.0, 0.0, 0.0, 0.0)",0.42138671875,0.65576171875,0.5166015625,"(0.0, 0.0, 0.0, 0.0, 0.0, 0.0, 0.0, 0.0, 0.0)"
2022/11/28/23:10:25.275182,12560,1669698625,274596214,RU_myo,0.8659913718062484,0.3376560663118245,-0.32550972553162694,-0.17346683666995757,"(0.0, 0.0, 0.0, 0.0, 0.0, 0.0, 0.0, 0.0, 0.0)",14.0625,0.9375,-1.4375,"(0.0, 0.0, 0.0, 0.0, 0.0, 0.0, 0.0, 0.0, 0.0)",0.4384765625,0.697265625,0.54345703125,"(0.0, 0.0, 0.0, 0.0, 0.0, 0.0, 0.0, 0.0, 0.0)"
2022/11/28/23:10:25.291619,12561,1669698625,291110992,RU_myo,0.8652749730695432,0.33882204962676593,-0.3264923695646858,-0.17292071096966816,"(0.0, 0.0, 0.0, 0.0, 0.0, 0.0, 0.0, 0.0, 0.0)",9.5,-3.4375,0.3125,"(0.0, 0.0, 0.0, 0.0, 0.0, 0.0, 0.0, 0.0, 0.0)",0.466796875,0.6904296875,0.55908203125,"(0.0, 0.0, 0.0, 0.0, 0.0, 0.0, 0.0, 0.0, 0.0)"
2022/11/28/23:10:25.314327,12562,1669698625,313932180,RU_myo,0.8645808221153376,0.33948454165940756,-0.3276434770995505,-0.17291616442306754,"(0.0, 0.0, 0.0, 0.0, 0.0, 0.0, 0.0, 0.0, 0.0)",6.5,-6.125,-0.6875,"(0.0, 0.0, 0.0, 0.0, 0.0, 0.0, 0.0, 0.0, 0.0)",0.46484375,0.69921875,0.5654296875,"(0.0, 0.0, 0.0, 0.0, 0.0, 0.0, 0.0, 0.0, 0.0)"
2022/11/28/23:10:25.335562,12563,1669698625,334858417,RU_myo,0.863860440832141,0.3400386148432034,-0.3288687949695171,-0.17310168940860254,"(0.0, 0.0, 0.0, 0.0, 0.0, 0.0, 0.0, 0.0, 0.0)",5.9375,-7.0625,-1.5,"(0.0, 0.0, 0.0, 0.0, 0.0, 0.0, 0.0, 0.0, 0.0)",0.47509765625,0.7001953125,0.57763671875,"(0.0, 0.0, 0.0, 0.0, 0.0, 0.0, 0.0, 0.0, 0.0)"
2022/11/28/23:10:25.352420,12564,1669698625,352077722,RU_myo,0.8633089038748398,0.34040397036976683,-0.32990558720613045,-0.1731622850885832,"(0.0, 0.0, 0.0, 0.0, 0.0, 0.0, 0.0, 0.0, 0.0)",5.25,-5.75,-1.0625,"(0.0, 0.0, 0.0, 0.0, 0.0, 0.0, 0.0, 0.0, 0.0)",0.4794921875,0.69970703125,0.57373046875,"(0.0, 0.0, 0.0, 0.0, 0.0, 0.0, 0.0, 0.0, 0.0)"
2022/11/28/23:10:25.374692,12565,1669698625,374363899,RU_myo,0.8627378762059923,0.3409447312689546,-0.33087386111869005,-0.17309689543121287,"(0.0, 0.0, 0.0, 0.0, 0.0, 0.0, 0.0, 0.0, 0.0)",7.125,-5.375,-0.9375,"(0.0, 0.0, 0.0, 0.0, 0.0, 0.0, 0.0, 0.0, 0.0)",0.48193359375,0.69921875,0.59521484375,"(0.0, 0.0, 0.0, 0.0, 0.0, 0.0, 0.0, 0.0, 0.0)"
2022/11/28/23:10:25.395695,12566,1669698625,395031452,RU_myo,0.8621281611780707,0.3419825902358039,-0.33142342762456095,-0.1730359884559172,"(0.0, 0.0, 0.0, 0.0, 0.0, 0.0, 0.0, 0.0, 0.0)",9.0625,-3.5625,-1.875,"(0.0, 0.0, 0.0, 0.0, 0.0, 0.0, 0.0, 0.0, 0.0)",0.47119140625,0.71337890625,0.5947265625,"(0.0, 0.0, 0.0, 0.0, 0.0, 0.0, 0.0, 0.0, 0.0)"
2022/11/28/23:10:25.411920,12567,1669698625,411497831,RU_myo,0.8614599368588017,0.34350974384592153,-0.33148568209438517,-0.17321973223786874,"(0.0, 0.0, 0.0, 0.0, 0.0, 0.0, 0.0, 0.0, 0.0)",10.25,-0.9375,-5.0625,"(0.0, 0.0, 0.0, 0.0, 0.0, 0.0, 0.0, 0.0, 0.0)",0.48193359375,0.7294921875,0.59375,"(0.0, 0.0, 0.0, 0.0, 0.0, 0.0, 0.0, 0.0, 0.0)"
2022/11/28/23:10:25.433926,12568,1669698625,433554172,RU_myo,0.8610813395661334,0.3446034337390409,-0.3311757406071619,-0.17352241624514583,"(0.0, 0.0, 0.0, 0.0, 0.0, 0.0, 0.0, 0.0, 0.0)",6.125,1.0,-4.875,"(0.0, 0.0, 0.0, 0.0, 0.0, 0.0, 0.0, 0.0, 0.0)",0.4609375,0.7177734375,0.5693359375,"(0.0, 0.0, 0.0, 0.0, 0.0, 0.0, 0.0, 0.0, 0.0)"
2022/11/28/23:10:25.455085,12569,1669698625,454759597,RU_myo,0.8608523412269551,0.34509778341585395,-0.3309984576342723,-0.17401375672419517,"(0.0, 0.0, 0.0, 0.0, 0.0, 0.0, 0.0, 0.0, 0.0)",3.375,-0.9375,-4.5,"(0.0, 0.0, 0.0, 0.0, 0.0, 0.0, 0.0, 0.0, 0.0)",0.46337890625,0.71240234375,0.57763671875,"(0.0, 0.0, 0.0, 0.0, 0.0, 0.0, 0.0, 0.0, 0.0)"
2022/11/28/23:10:25.471602,12570,1669698625,471225500,RU_myo,0.8607339310608362,0.3455265057251024,-0.3306336480326585,-0.17444175116805205,"(0.0, 0.0, 0.0, 0.0, 0.0, 0.0, 0.0, 0.0, 0.0)",3.0,0.8125,-4.8125,"(0.0, 0.0, 0.0, 0.0, 0.0, 0.0, 0.0, 0.0, 0.0)",0.47119140625,0.71875,0.58154296875,"(0.0, 0.0, 0.0, 0.0, 0.0, 0.0, 0.0, 0.0, 0.0)"
2022/11/28/23:10:25.495013,12571,1669698625,494581699,RU_myo,0.860913877600014,0.3457693808297823,-0.32971689236407487,-0.1748073268661071,"(0.0, 0.0, 0.0, 0.0, 0.0, 0.0, 0.0, 0.0, 0.0)",2.375,3.375,-4.875,"(0.0, 0.0, 0.0, 0.0, 0.0, 0.0, 0.0, 0.0, 0.0)",0.46630859375,0.70703125,0.60400390625,"(0.0, 0.0, 0.0, 0.0, 0.0, 0.0, 0.0, 0.0, 0.0)"
2022/11/28/23:10:25.515137,12572,1669698625,514630556,RU_myo,0.8611682737712292,0.34626179155887615,-0.3285000814683362,-0.17487044470583116,"(0.0, 0.0, 0.0, 0.0, 0.0, 0.0, 0.0, 0.0, 0.0)",3.3125,6.125,-4.6875,"(0.0, 0.0, 0.0, 0.0, 0.0, 0.0, 0.0, 0.0, 0.0)",0.45703125,0.69287109375,0.58642578125,"(0.0, 0.0, 0.0, 0.0, 0.0, 0.0, 0.0, 0.0, 0.0)"
2022/11/28/23:10:25.531920,12573,1669698625,531363487,RU_myo,0.8613600115957362,0.3469977087529592,-0.32728262345353865,-0.17475012140012702,"(0.0, 0.0, 0.0, 0.0, 0.0, 0.0, 0.0, 0.0, 0.0)",4.125,6.5625,-3.75,"(0.0, 0.0, 0.0, 0.0, 0.0, 0.0, 0.0, 0.0, 0.0)",0.451171875,0.70556640625,0.57958984375,"(0.0, 0.0, 0.0, 0.0, 0.0, 0.0, 0.0, 0.0, 0.0)"
2022/11/28/23:10:25.553890,12574,1669698625,553589582,RU_myo,0.8617523871456941,0.3477160811366966,-0.3256824660251734,-0.17437683760006006,"(0.0, 0.0, 0.0, 0.0, 0.0, 0.0, 0.0, 0.0, 0.0)",4.8125,9.0,-3.125,"(0.0, 0.0, 0.0, 0.0, 0.0, 0.0, 0.0, 0.0, 0.0)",0.45361328125,0.705078125,0.595703125,"(0.0, 0.0, 0.0, 0.0, 0.0, 0.0, 0.0, 0.0, 0.0)"
2022/11/28/23:10:25.577477,12575,1669698625,576158761,RU_myo,0.8624322035431872,0.3484519072914406,-0.3236104418390643,-0.1734019738334179,"(0.0, 0.0, 0.0, 0.0, 0.0, 0.0, 0.0, 0.0, 0.0)",5.75,13.1875,-2.25,"(0.0, 0.0, 0.0, 0.0, 0.0, 0.0, 0.0, 0.0, 0.0)",0.4716796875,0.70361328125,0.6162109375,"(0.0, 0.0, 0.0, 0.0, 0.0, 0.0, 0.0, 0.0, 0.0)"
2022/11/28/23:10:25.591500,12576,1669698625,591097116,RU_myo,0.8633524646113052,0.34949142540575,-0.3208045637325571,-0.17193806241145612,"(0.0, 0.0, 0.0, 0.0, 0.0, 0.0, 0.0, 0.0, 0.0)",7.6875,17.625,-0.4375,"(0.0, 0.0, 0.0, 0.0, 0.0, 0.0, 0.0, 0.0, 0.0)",0.4423828125,0.68798828125,0.62109375,"(0.0, 0.0, 0.0, 0.0, 0.0, 0.0, 0.0, 0.0, 0.0)"
2022/11/28/23:10:25.614362,12577,1669698625,613984584,RU_myo,0.8639646113016167,0.3506518327041885,-0.318730003547654,-0.17035148217186946,"(0.0, 0.0, 0.0, 0.0, 0.0, 0.0, 0.0, 0.0, 0.0)",10.8125,13.3125,1.125,"(0.0, 0.0, 0.0, 0.0, 0.0, 0.0, 0.0, 0.0, 0.0)",0.42578125,0.673828125,0.626953125,"(0.0, 0.0, 0.0, 0.0, 0.0, 0.0, 0.0, 0.0, 0.0)"
2022/11/28/23:10:25.635757,12578,1669698625,635524511,RU_myo,0.864826731748457,0.35163150551223527,-0.3165354951547391,-0.1680335939377163,"(0.0, 0.0, 0.0, 0.0, 0.0, 0.0, 0.0, 0.0, 0.0)",12.4375,15.125,3.875,"(0.0, 0.0, 0.0, 0.0, 0.0, 0.0, 0.0, 0.0, 0.0)",0.44384765625,0.671875,0.666015625,"(0.0, 0.0, 0.0, 0.0, 0.0, 0.0, 0.0, 0.0, 0.0)"
2022/11/28/23:10:25.651232,12579,1669698625,650847434,RU_myo,0.8658839741687548,0.3524940047105991,-0.3143453029020927,-0.16486342973564125,"(0.0, 0.0, 0.0, 0.0, 0.0, 0.0, 0.0, 0.0, 0.0)",14.875,17.125,7.1875,"(0.0, 0.0, 0.0, 0.0, 0.0, 0.0, 0.0, 0.0, 0.0)",0.46533203125,0.66455078125,0.69287109375,"(0.0, 0.0, 0.0, 0.0, 0.0, 0.0, 0.0, 0.0, 0.0)"
2022/11/28/23:10:25.674267,12580,1669698625,673876285,RU_myo,0.8674252683060393,0.35278061151202555,-0.31188735723641015,-0.16076542054025525,"(0.0, 0.0, 0.0, 0.0, 0.0, 0.0, 0.0, 0.0, 0.0)",15.3125,20.375,11.25,"(0.0, 0.0, 0.0, 0.0, 0.0, 0.0, 0.0, 0.0, 0.0)",0.498046875,0.65576171875,0.75390625,"(0.0, 0.0, 0.0, 0.0, 0.0, 0.0, 0.0, 0.0, 0.0)"
2022/11/28/23:10:25.697123,12581,1669698625,696710109,RU_myo,0.8702481034547761,0.3521153954853839,-0.3078034216385493,-0.15472569380402984,"(0.0, 0.0, 0.0, 0.0, 0.0, 0.0, 0.0, 0.0, 0.0)",13.0625,33.8125,18.0,"(0.0, 0.0, 0.0, 0.0, 0.0, 0.0, 0.0, 0.0, 0.0)",0.51904296875,0.62060546875,0.791015625,"(0.0, 0.0, 0.0, 0.0, 0.0, 0.0, 0.0, 0.0, 0.0)"
2022/11/28/23:10:25.709897,12582,1669698625,709777116,RU_myo,0.8745563639393054,0.3512752564538458,-0.30061349053608866,-0.14624770016740476,"(0.0, 0.0, 0.0, 0.0, 0.0, 0.0, 0.0, 0.0, 0.0)",15.6875,53.875,25.1875,"(0.0, 0.0, 0.0, 0.0, 0.0, 0.0, 0.0, 0.0, 0.0)",0.50048828125,0.57958984375,0.87890625,"(0.0, 0.0, 0.0, 0.0, 0.0, 0.0, 0.0, 0.0, 0.0)"
2022/11/28/23:10:25.734985,12583,1669698625,734512567,RU_myo,0.8795639010008567,0.35213075259361154,-0.290665044869263,-0.13373521909041478,"(0.0, 0.0, 0.0, 0.0, 0.0, 0.0, 0.0, 0.0, 0.0)",33.3125,78.0,34.3125,"(0.0, 0.0, 0.0, 0.0, 0.0, 0.0, 0.0, 0.0, 0.0)",0.51220703125,0.4892578125,0.93701171875,"(0.0, 0.0, 0.0, 0.0, 0.0, 0.0, 0.0, 0.0, 0.0)"
2022/11/28/23:10:25.756765,12584,1669698625,756242990,RU_myo,0.8828282830521544,0.3589541712271654,-0.2792408320633024,-0.11743374008520086,"(0.0, 0.0, 0.0, 0.0, 0.0, 0.0, 0.0, 0.0, 0.0)",52.125,100.4375,46.5,"(0.0, 0.0, 0.0, 0.0, 0.0, 0.0, 0.0, 0.0, 0.0)",0.5341796875,0.431640625,0.85888671875,"(0.0, 0.0, 0.0, 0.0, 0.0, 0.0, 0.0, 0.0, 0.0)"
2022/11/28/23:10:25.771646,12585,1669698625,771317481,RU_myo,0.8853199099681786,0.36847130620323293,-0.2661147747301798,-0.09808404655766031,"(0.0, 0.0, 0.0, 0.0, 0.0, 0.0, 0.0, 0.0, 0.0)",68.75,116.8125,54.5625,"(0.0, 0.0, 0.0, 0.0, 0.0, 0.0, 0.0, 0.0, 0.0)",0.5146484375,0.501953125,0.73193359375,"(0.0, 0.0, 0.0, 0.0, 0.0, 0.0, 0.0, 0.0, 0.0)"
2022/11/28/23:10:25.794278,12586,1669698625,793917179,RU_myo,0.8870767004518693,0.3795391814084995,-0.25147980498601125,-0.07617640694721894,"(0.0, 0.0, 0.0, 0.0, 0.0, 0.0, 0.0, 0.0, 0.0)",81.125,129.875,61.8125,"(0.0, 0.0, 0.0, 0.0, 0.0, 0.0, 0.0, 0.0, 0.0)",0.5166015625,0.57958984375,0.75537109375,"(0.0, 0.0, 0.0, 0.0, 0.0, 0.0, 0.0, 0.0, 0.0)"
2022/11/28/23:10:25.817219,12587,1669698625,816755056,RU_myo,0.8886226596247688,0.3906912318331029,-0.23486640526383062,-0.05047674562193034,"(0.0, 0.0, 0.0, 0.0, 0.0, 0.0, 0.0, 0.0, 0.0)",86.375,148.25,75.875,"(0.0, 0.0, 0.0, 0.0, 0.0, 0.0, 0.0, 0.0, 0.0)",0.55126953125,0.5634765625,0.72216796875,"(0.0, 0.0, 0.0, 0.0, 0.0, 0.0, 0.0, 0.0, 0.0)"
2022/11/28/23:10:25.837557,12588,1669698625,837154865,RU_myo,0.8896763940836967,0.4016849855560379,-0.21607124280023918,-0.020935716463413006,"(0.0, 0.0, 0.0, 0.0, 0.0, 0.0, 0.0, 0.0, 0.0)",89.5,168.5625,90.25,"(0.0, 0.0, 0.0, 0.0, 0.0, 0.0, 0.0, 0.0, 0.0)",0.5400390625,0.51513671875,0.54736328125,"(0.0, 0.0, 0.0, 0.0, 0.0, 0.0, 0.0, 0.0, 0.0)"
2022/11/28/23:10:25.854158,12589,1669698625,853868961,RU_myo,0.8890103103706604,0.4138338416967441,-0.19562499448939008,0.011536076118095078,"(0.0, 0.0, 0.0, 0.0, 0.0, 0.0, 0.0, 0.0, 0.0)",101.1875,181.625,101.0,"(0.0, 0.0, 0.0, 0.0, 0.0, 0.0, 0.0, 0.0, 0.0)",0.486328125,0.615234375,0.48779296875,"(0.0, 0.0, 0.0, 0.0, 0.0, 0.0, 0.0, 0.0, 0.0)"
2022/11/28/23:10:25.876839,12590,1669698625,876379489,RU_myo,0.8853486115230795,0.4286051671916625,-0.17438407329344627,0.04522877084719765,"(0.0, 0.0, 0.0, 0.0, 0.0, 0.0, 0.0, 0.0, 0.0)",122.25,184.9375,103.0625,"(0.0, 0.0, 0.0, 0.0, 0.0, 0.0, 0.0, 0.0, 0.0)",0.47021484375,0.6787109375,0.4609375,"(0.0, 0.0, 0.0, 0.0, 0.0, 0.0, 0.0, 0.0, 0.0)"
2022/11/28/23:10:25.898130,12591,1669698625,897540569,RU_myo,0.8795376125809106,0.44318685669326796,-0.15423952442692304,0.0787982691076999,"(0.0, 0.0, 0.0, 0.0, 0.0, 0.0, 0.0, 0.0, 0.0)",123.75,178.5,105.875,"(0.0, 0.0, 0.0, 0.0, 0.0, 0.0, 0.0, 0.0, 0.0)",0.4658203125,0.63525390625,0.2421875,"(0.0, 0.0, 0.0, 0.0, 0.0, 0.0, 0.0, 0.0, 0.0)"
2022/11/28/23:10:25.914149,12592,1669698625,913673400,RU_myo,0.8718710307798805,0.4571158043622602,-0.13770239746845495,0.10919751288611076,"(0.0, 0.0, 0.0, 0.0, 0.0, 0.0, 0.0, 0.0, 0.0)",118.8125,150.3125,101.4375,"(0.0, 0.0, 0.0, 0.0, 0.0, 0.0, 0.0, 0.0, 0.0)",0.42919921875,0.78955078125,0.18505859375,"(0.0, 0.0, 0.0, 0.0, 0.0, 0.0, 0.0, 0.0, 0.0)"
2022/11/28/23:10:25.937668,12593,1669698625,936835050,RU_myo,0.8635331546762516,0.4694866430428136,-0.12396351690327022,0.1361096222029998,"(0.0, 0.0, 0.0, 0.0, 0.0, 0.0, 0.0, 0.0, 0.0)",108.5,127.75,92.6875,"(0.0, 0.0, 0.0, 0.0, 0.0, 0.0, 0.0, 0.0, 0.0)",0.47998046875,0.87158203125,0.22216796875,"(0.0, 0.0, 0.0, 0.0, 0.0, 0.0, 0.0, 0.0, 0.0)"
2022/11/28/23:10:25.958115,12594,1669698625,957267999,RU_myo,0.8559986099934026,0.47823367864363303,-0.11334779084125418,0.1603471440710688,"(0.0, 0.0, 0.0, 0.0, 0.0, 0.0, 0.0, 0.0, 0.0)",84.1875,108.375,90.25,"(0.0, 0.0, 0.0, 0.0, 0.0, 0.0, 0.0, 0.0, 0.0)",0.46875,0.896484375,0.240234375,"(0.0, 0.0, 0.0, 0.0, 0.0, 0.0, 0.0, 0.0, 0.0)"
2022/11/28/23:10:25.974042,12595,1669698625,973614931,RU_myo,0.8495358947575262,0.4839754353737912,-0.1072449035126436,0.18043024176629166,"(0.0, 0.0, 0.0, 0.0, 0.0, 0.0, 0.0, 0.0, 0.0)",48.4375,82.625,84.5625,"(0.0, 0.0, 0.0, 0.0, 0.0, 0.0, 0.0, 0.0, 0.0)",0.40380859375,0.89453125,0.28662109375,"(0.0, 0.0, 0.0, 0.0, 0.0, 0.0, 0.0, 0.0, 0.0)"
2022/11/28/23:10:25.997416,12596,1669698625,996771335,RU_myo,0.8445146806413819,0.486957077345833,-0.1044961790443803,0.19684589802460659,"(0.0, 0.0, 0.0, 0.0, 0.0, 0.0, 0.0, 0.0, 0.0)",23.625,61.9375,73.75,"(0.0, 0.0, 0.0, 0.0, 0.0, 0.0, 0.0, 0.0, 0.0)",0.42431640625,0.82080078125,0.20947265625,"(0.0, 0.0, 0.0, 0.0, 0.0, 0.0, 0.0, 0.0, 0.0)"
2022/11/28/23:10:26.017944,12597,1669698626,17392158,RU_myo,0.8404370547436766,0.48818473119615985,-0.1053521938040225,0.2103381575021214,"(0.0, 0.0, 0.0, 0.0, 0.0, 0.0, 0.0, 0.0, 0.0)",11.6875,37.375,68.5625,"(0.0, 0.0, 0.0, 0.0, 0.0, 0.0, 0.0, 0.0, 0.0)",0.474609375,0.8583984375,0.326171875,"(0.0, 0.0, 0.0, 0.0, 0.0, 0.0, 0.0, 0.0, 0.0)"
2022/11/28/23:10:26.034151,12598,1669698626,33765077,RU_myo,0.8370844660204196,0.4884315223199211,-0.10822158073896777,0.2213872946081422,"(0.0, 0.0, 0.0, 0.0, 0.0, 0.0, 0.0, 0.0, 0.0)",6.75,23.3125,57.4375,"(0.0, 0.0, 0.0, 0.0, 0.0, 0.0, 0.0, 0.0, 0.0)",0.56201171875,0.8095703125,0.39697265625,"(0.0, 0.0, 0.0, 0.0, 0.0, 0.0, 0.0, 0.0, 0.0)"
2022/11/28/23:10:26.057388,12599,1669698626,56963920,RU_myo,0.8339768811499564,0.4891061076377516,-0.11267813237230619,0.22926276554191877,"(0.0, 0.0, 0.0, 0.0, 0.0, 0.0, 0.0, 0.0, 0.0)",-0.4375,7.625,48.3125,"(0.0, 0.0, 0.0, 0.0, 0.0, 0.0, 0.0, 0.0, 0.0)",0.54150390625,0.81640625,0.3173828125,"(0.0, 0.0, 0.0, 0.0, 0.0, 0.0, 0.0, 0.0, 0.0)"
2022/11/28/23:10:26.078053,12600,1669698626,77279329,RU_myo,0.8318214972092187,0.4891559640911857,-0.11786375925381577,0.23432365187747217,"(0.0, 0.0, 0.0, 0.0, 0.0, 0.0, 0.0, 0.0, 0.0)",-6.3125,-5.0,38.0625,"(0.0, 0.0, 0.0, 0.0, 0.0, 0.0, 0.0, 0.0, 0.0)",0.533203125,0.837890625,0.37890625,"(0.0, 0.0, 0.0, 0.0, 0.0, 0.0, 0.0, 0.0, 0.0)"
2022/11/28/23:10:26.094033,12601,1669698626,93750715,RU_myo,0.8309166972494828,0.4877584167869402,-0.12354186404414554,0.23750068823901693,"(0.0, 0.0, 0.0, 0.0, 0.0, 0.0, 0.0, 0.0, 0.0)",-12.125,-11.875,27.4375,"(0.0, 0.0, 0.0, 0.0, 0.0, 0.0, 0.0, 0.0, 0.0)",0.56201171875,0.7919921875,0.47314453125,"(0.0, 0.0, 0.0, 0.0, 0.0, 0.0, 0.0, 0.0, 0.0)"
2022/11/28/23:10:26.117499,12602,1669698626,117034912,RU_myo,0.831031239697562,0.48512936416571595,-0.12933934608293307,0.23939071039984122,"(0.0, 0.0, 0.0, 0.0, 0.0, 0.0, 0.0, 0.0, 0.0)",-17.875,-15.25,20.1875,"(0.0, 0.0, 0.0, 0.0, 0.0, 0.0, 0.0, 0.0, 0.0)",0.5791015625,0.748046875,0.52685546875,"(0.0, 0.0, 0.0, 0.0, 0.0, 0.0, 0.0, 0.0, 0.0)"
2022/11/28/23:10:26.138422,12603,1669698626,137191534,RU_myo,0.8313886333355304,0.4826827187737592,-0.13440406509102398,0.24030372582350656,"(0.0, 0.0, 0.0, 0.0, 0.0, 0.0, 0.0, 0.0, 0.0)",-15.875,-15.1875,13.1875,"(0.0, 0.0, 0.0, 0.0, 0.0, 0.0, 0.0, 0.0, 0.0)",0.564453125,0.70947265625,0.53857421875,"(0.0, 0.0, 0.0, 0.0, 0.0, 0.0, 0.0, 0.0, 0.0)"
2022/11/28/23:10:26.154463,12604,1669698626,154152631,RU_myo,0.8312145841598211,0.48195552625392474,-0.13782365479753825,0.24042842172165774,"(0.0, 0.0, 0.0, 0.0, 0.0, 0.0, 0.0, 0.0, 0.0)",-6.625,-12.5,5.9375,"(0.0, 0.0, 0.0, 0.0, 0.0, 0.0, 0.0, 0.0, 0.0)",0.5234375,0.6826171875,0.4794921875,"(0.0, 0.0, 0.0, 0.0, 0.0, 0.0, 0.0, 0.0, 0.0)"
2022/11/28/23:10:26.176614,12605,1669698626,176290273,RU_myo,0.8303595952304379,0.48293186691143963,-0.14038717061379058,0.23993998594904817,"(0.0, 0.0, 0.0, 0.0, 0.0, 0.0, 0.0, 0.0, 0.0)",2.0625,-13.1875,2.6875,"(0.0, 0.0, 0.0, 0.0, 0.0, 0.0, 0.0, 0.0, 0.0)",0.494140625,0.7099609375,0.45556640625,"(0.0, 0.0, 0.0, 0.0, 0.0, 0.0, 0.0, 0.0, 0.0)"
2022/11/28/23:10:26.197996,12606,1669698626,197255373,RU_myo,0.8295495448522903,0.4835936313637477,-0.14349723934572398,0.23956897678943706,"(0.0, 0.0, 0.0, 0.0, 0.0, 0.0, 0.0, 0.0, 0.0)",3.75,-16.5625,2.875,"(0.0, 0.0, 0.0, 0.0, 0.0, 0.0, 0.0, 0.0, 0.0)",0.53857421875,0.705078125,0.529296875,"(0.0, 0.0, 0.0, 0.0, 0.0, 0.0, 0.0, 0.0, 0.0)"
2022/11/28/23:10:26.213988,12607,1669698626,213612079,RU_myo,0.8298638841999573,0.4825002945425612,-0.14624550357039554,0.2390222837986932,"(0.0, 0.0, 0.0, 0.0, 0.0, 0.0, 0.0, 0.0, 0.0)",-4.0625,-13.5,0.8125,"(0.0, 0.0, 0.0, 0.0, 0.0, 0.0, 0.0, 0.0, 0.0)",0.55810546875,0.7177734375,0.60546875,"(0.0, 0.0, 0.0, 0.0, 0.0, 0.0, 0.0, 0.0, 0.0)"
2022/11/28/23:10:26.238504,12608,1669698626,238035917,RU_myo,0.8310489686060935,0.48050073307874896,-0.1469824396917718,0.23848022918428255,"(0.0, 0.0, 0.0, 0.0, 0.0, 0.0, 0.0, 0.0, 0.0)",-8.375,-3.0,-3.8125,"(0.0, 0.0, 0.0, 0.0, 0.0, 0.0, 0.0, 0.0, 0.0)",0.53076171875,0.71923828125,0.6005859375,"(0.0, 0.0, 0.0, 0.0, 0.0, 0.0, 0.0, 0.0, 0.0)"
2022/11/28/23:10:26.257744,12609,1669698626,257239341,RU_myo,0.8317481436012255,0.4796880208822214,-0.14648826188030684,0.23798238877971514,"(0.0, 0.0, 0.0, 0.0, 0.0, 0.0, 0.0, 0.0, 0.0)",-1.4375,1.9375,-6.625,"(0.0, 0.0, 0.0, 0.0, 0.0, 0.0, 0.0, 0.0, 0.0)",0.49755859375,0.6884765625,0.54931640625,"(0.0, 0.0, 0.0, 0.0, 0.0, 0.0, 0.0, 0.0, 0.0)"
2022/11/28/23:10:26.274384,12610,1669698626,273995161,RU_myo,0.8318716319058272,0.4798109104418305,-0.145878142215491,0.23767760911595062,"(0.0, 0.0, 0.0, 0.0, 0.0, 0.0, 0.0, 0.0, 0.0)",3.4375,1.6875,-5.4375,"(0.0, 0.0, 0.0, 0.0, 0.0, 0.0, 0.0, 0.0, 0.0)",0.47607421875,0.6806640625,0.51708984375,"(0.0, 0.0, 0.0, 0.0, 0.0, 0.0, 0.0, 0.0, 0.0)"
2022/11/28/23:10:26.297245,12611,1669698626,296272039,RU_myo,0.8318409737647422,0.47976739461336027,-0.14588346986335,0.23786940671860876,"(0.0, 0.0, 0.0, 0.0, 0.0, 0.0, 0.0, 0.0, 0.0)",3.8125,-0.375,-2.0625,"(0.0, 0.0, 0.0, 0.0, 0.0, 0.0, 0.0, 0.0, 0.0)",0.5048828125,0.69482421875,0.54931640625,"(0.0, 0.0, 0.0, 0.0, 0.0, 0.0, 0.0, 0.0, 0.0)"
2022/11/28/23:10:26.317861,12612,1669698626,317372322,RU_myo,0.8317452510099924,0.47962531609573056,-0.1458163502357725,0.238530890214064,"(0.0, 0.0, 0.0, 0.0, 0.0, 0.0, 0.0, 0.0, 0.0)",5.4375,1.8125,-0.375,"(0.0, 0.0, 0.0, 0.0, 0.0, 0.0, 0.0, 0.0, 0.0)",0.515625,0.6865234375,0.5654296875,"(0.0, 0.0, 0.0, 0.0, 0.0, 0.0, 0.0, 0.0, 0.0)"
2022/11/28/23:10:26.334616,12613,1669698626,334280729,RU_myo,0.8313375520377597,0.480246979400374,-0.14478213461333084,0.2393299957077868,"(0.0, 0.0, 0.0, 0.0, 0.0, 0.0, 0.0, 0.0, 0.0)",7.75,5.4375,-0.25,"(0.0, 0.0, 0.0, 0.0, 0.0, 0.0, 0.0, 0.0, 0.0)",0.478515625,0.70263671875,0.5146484375,"(0.0, 0.0, 0.0, 0.0, 0.0, 0.0, 0.0, 0.0, 0.0)"
2022/11/28/23:10:26.356718,12614,1669698626,356340885,RU_myo,0.8310510090824518,0.480685030960287,-0.14435810771061316,0.2397016021055298,"(0.0, 0.0, 0.0, 0.0, 0.0, 0.0, 0.0, 0.0, 0.0)",4.1875,2.875,-0.8125,"(0.0, 0.0, 0.0, 0.0, 0.0, 0.0, 0.0, 0.0, 0.0)",0.48095703125,0.712890625,0.490234375,"(0.0, 0.0, 0.0, 0.0, 0.0, 0.0, 0.0, 0.0, 0.0)"
2022/11/28/23:10:26.377933,12615,1669698626,377401828,RU_myo,0.83107967424892,0.48054423291434695,-0.1444745585301993,0.23981433902203342,"(0.0, 0.0, 0.0, 0.0, 0.0, 0.0, 0.0, 0.0, 0.0)",-0.8125,0.625,-0.5625,"(0.0, 0.0, 0.0, 0.0, 0.0, 0.0, 0.0, 0.0, 0.0)",0.52392578125,0.6875,0.525390625,"(0.0, 0.0, 0.0, 0.0, 0.0, 0.0, 0.0, 0.0, 0.0)"
2022/11/28/23:10:26.394614,12616,1669698626,394116878,RU_myo,0.8312579572269285,0.4798700388955219,-0.14477890260241386,0.24036227590569384,"(0.0, 0.0, 0.0, 0.0, 0.0, 0.0, 0.0, 0.0, 0.0)",-0.5,1.375,0.3125,"(0.0, 0.0, 0.0, 0.0, 0.0, 0.0, 0.0, 0.0, 0.0)",0.50634765625,0.68115234375,0.53369140625,"(0.0, 0.0, 0.0, 0.0, 0.0, 0.0, 0.0, 0.0, 0.0)"
2022/11/28/23:10:26.417430,12617,1669698626,416950225,RU_myo,0.8313086042745018,0.47947199402130936,-0.14497084478683764,0.2408652435910995,"(0.0, 0.0, 0.0, 0.0, 0.0, 0.0, 0.0, 0.0, 0.0)",-0.3125,1.8125,0.8125,"(0.0, 0.0, 0.0, 0.0, 0.0, 0.0, 0.0, 0.0, 0.0)",0.498046875,0.6904296875,0.50048828125,"(0.0, 0.0, 0.0, 0.0, 0.0, 0.0, 0.0, 0.0, 0.0)"
2022/11/28/23:10:26.438041,12618,1669698626,437137842,RU_myo,0.8312659301238893,0.479203232058349,-0.14581792400807486,0.24103599075256912,"(0.0, 0.0, 0.0, 0.0, 0.0, 0.0, 0.0, 0.0, 0.0)",-1.875,-1.8125,1.0,"(0.0, 0.0, 0.0, 0.0, 0.0, 0.0, 0.0, 0.0, 0.0)",0.5048828125,0.70751953125,0.49169921875,"(0.0, 0.0, 0.0, 0.0, 0.0, 0.0, 0.0, 0.0, 0.0)"
2022/11/28/23:10:26.453940,12619,1669698626,453644514,RU_myo,0.8314530237824969,0.47841203937800697,-0.14703937265394473,0.24122025767056435,"(0.0, 0.0, 0.0, 0.0, 0.0, 0.0, 0.0, 0.0, 0.0)",-3.3125,-3.625,1.1875,"(0.0, 0.0, 0.0, 0.0, 0.0, 0.0, 0.0, 0.0, 0.0)",0.5234375,0.6962890625,0.533203125,"(0.0, 0.0, 0.0, 0.0, 0.0, 0.0, 0.0, 0.0, 0.0)"
2022/11/28/23:10:26.476932,12620,1669698626,476526260,RU_myo,0.8317631291633316,0.47731618625209166,-0.14813892378949187,0.2416489490245564,"(0.0, 0.0, 0.0, 0.0, 0.0, 0.0, 0.0, 0.0, 0.0)",-2.375,-3.125,2.1875,"(0.0, 0.0, 0.0, 0.0, 0.0, 0.0, 0.0, 0.0, 0.0)",0.5224609375,0.6865234375,0.5703125,"(0.0, 0.0, 0.0, 0.0, 0.0, 0.0, 0.0, 0.0, 0.0)"
2022/11/28/23:10:26.499524,12621,1669698626,499032258,RU_myo,0.8319257340413383,0.47651094685698664,-0.14892874475868417,0.24219231934527002,"(0.0, 0.0, 0.0, 0.0, 0.0, 0.0, 0.0, 0.0, 0.0)",-2.375,-1.0625,2.625,"(0.0, 0.0, 0.0, 0.0, 0.0, 0.0, 0.0, 0.0, 0.0)",0.50634765625,0.69580078125,0.5322265625,"(0.0, 0.0, 0.0, 0.0, 0.0, 0.0, 0.0, 0.0, 0.0)"
2022/11/28/23:10:26.514402,12622,1669698626,514079570,RU_myo,0.8320205974887558,0.47604201011039593,-0.14948414960384146,0.242446321856455,"(0.0, 0.0, 0.0, 0.0, 0.0, 0.0, 0.0, 0.0, 0.0)",-2.25,-1.25,2.5625,"(0.0, 0.0, 0.0, 0.0, 0.0, 0.0, 0.0, 0.0, 0.0)",0.49267578125,0.72021484375,0.51708984375,"(0.0, 0.0, 0.0, 0.0, 0.0, 0.0, 0.0, 0.0, 0.0)"
2022/11/28/23:10:26.537397,12623,1669698626,536873579,RU_myo,0.8322656815906334,0.4751879964197346,-0.1503388612950297,0.24275178699566916,"(0.0, 0.0, 0.0, 0.0, 0.0, 0.0, 0.0, 0.0, 0.0)",-3.0625,-1.9375,1.5,"(0.0, 0.0, 0.0, 0.0, 0.0, 0.0, 0.0, 0.0, 0.0)",0.52099609375,0.703125,0.548828125,"(0.0, 0.0, 0.0, 0.0, 0.0, 0.0, 0.0, 0.0, 0.0)"
2022/11/28/23:10:26.559746,12624,1669698626,558902263,RU_myo,0.8326410682416185,0.47409450751650545,-0.15052363274568076,0.24348693066606672,"(0.0, 0.0, 0.0, 0.0, 0.0, 0.0, 0.0, 0.0, 0.0)",-1.0,2.0625,1.1875,"(0.0, 0.0, 0.0, 0.0, 0.0, 0.0, 0.0, 0.0, 0.0)",0.52734375,0.693359375,0.5810546875,"(0.0, 0.0, 0.0, 0.0, 0.0, 0.0, 0.0, 0.0, 0.0)"
2022/11/28/23:10:26.574101,12625,1669698626,573709964,RU_myo,0.8325697470855518,0.4739055363909255,-0.15003346322113534,0.24439950640253294,"(0.0, 0.0, 0.0, 0.0, 0.0, 0.0, 0.0, 0.0, 0.0)",1.3125,6.0,1.1875,"(0.0, 0.0, 0.0, 0.0, 0.0, 0.0, 0.0, 0.0, 0.0)",0.5087890625,0.69384765625,0.50439453125,"(0.0, 0.0, 0.0, 0.0, 0.0, 0.0, 0.0, 0.0, 0.0)"
2022/11/28/23:10:26.597054,12626,1669698626,596682071,RU_myo,0.8322843030618079,0.4744313499339567,-0.14947669831316865,0.24469256167312908,"(0.0, 0.0, 0.0, 0.0, 0.0, 0.0, 0.0, 0.0, 0.0)",0.625,4.875,-0.625,"(0.0, 0.0, 0.0, 0.0, 0.0, 0.0, 0.0, 0.0, 0.0)",0.494140625,0.7275390625,0.44287109375,"(0.0, 0.0, 0.0, 0.0, 0.0, 0.0, 0.0, 0.0, 0.0)"
2022/11/28/23:10:26.619611,12627,1669698626,619196891,RU_myo,0.8327326616211463,0.4736498903598985,-0.14984671144762254,0.24445461480559197,"(0.0, 0.0, 0.0, 0.0, 0.0, 0.0, 0.0, 0.0, 0.0)",-6.375,1.5625,-2.6875,"(0.0, 0.0, 0.0, 0.0, 0.0, 0.0, 0.0, 0.0, 0.0)",0.5107421875,0.6826171875,0.46435546875,"(0.0, 0.0, 0.0, 0.0, 0.0, 0.0, 0.0, 0.0, 0.0)"
2022/11/28/23:10:26.634878,12628,1669698626,633856296,RU_myo,0.8335954409215143,0.472067594646481,-0.15161829649623207,0.24348042863263678,"(0.0, 0.0, 0.0, 0.0, 0.0, 0.0, 0.0, 0.0, 0.0)",-16.375,-4.375,-2.375,"(0.0, 0.0, 0.0, 0.0, 0.0, 0.0, 0.0, 0.0, 0.0)",0.5146484375,0.68701171875,0.42919921875,"(0.0, 0.0, 0.0, 0.0, 0.0, 0.0, 0.0, 0.0, 0.0)"
2022/11/28/23:10:26.657192,12629,1669698626,656513214,RU_myo,0.834508692534161,0.4716390189592936,-0.15308278239289613,0.24024474940129154,"(0.0, 0.0, 0.0, 0.0, 0.0, 0.0, 0.0, 0.0, 0.0)",-17.5,-8.8125,-12.1875,"(0.0, 0.0, 0.0, 0.0, 0.0, 0.0, 0.0, 0.0, 0.0)",0.541015625,0.8076171875,0.41357421875,"(0.0, 0.0, 0.0, 0.0, 0.0, 0.0, 0.0, 0.0, 0.0)"
2022/11/28/23:10:26.679227,12630,1669698626,678885221,RU_myo,0.8355323131966284,0.47340117036694057,-0.15338539725788056,0.2329163055853849,"(0.0, 0.0, 0.0, 0.0, 0.0, 0.0, 0.0, 0.0, 0.0)",-13.1875,-15.625,-36.4375,"(0.0, 0.0, 0.0, 0.0, 0.0, 0.0, 0.0, 0.0, 0.0)",0.57568359375,0.8994140625,0.3955078125,"(0.0, 0.0, 0.0, 0.0, 0.0, 0.0, 0.0, 0.0, 0.0)"
2022/11/28/23:10:26.694128,12631,1669698626,693788528,RU_myo,0.8376718581208472,0.4751730847763622,-0.15454569693689776,0.2205266994601152,"(0.0, 0.0, 0.0, 0.0, 0.0, 0.0, 0.0, 0.0, 0.0)",-27.75,-29.5,-58.5,"(0.0, 0.0, 0.0, 0.0, 0.0, 0.0, 0.0, 0.0, 0.0)",0.59326171875,0.98486328125,0.32958984375,"(0.0, 0.0, 0.0, 0.0, 0.0, 0.0, 0.0, 0.0, 0.0)"
2022/11/28/23:10:26.716640,12632,1669698626,716320991,RU_myo,0.8414583421447344,0.47560158145885467,-0.15680447417451202,0.2028875329529303,"(0.0, 0.0, 0.0, 0.0, 0.0, 0.0, 0.0, 0.0, 0.0)",-47.0,-45.125,-80.5,"(0.0, 0.0, 0.0, 0.0, 0.0, 0.0, 0.0, 0.0, 0.0)",0.58203125,1.04052734375,0.31201171875,"(0.0, 0.0, 0.0, 0.0, 0.0, 0.0, 0.0, 0.0, 0.0)"
2022/11/28/23:10:26.739257,12633,1669698626,738910913,RU_myo,0.8483752943962415,0.4712789156078409,-0.15931070712815243,0.181040443426092,"(0.0, 0.0, 0.0, 0.0, 0.0, 0.0, 0.0, 0.0, 0.0)",-66.75,-57.625,-103.3125,"(0.0, 0.0, 0.0, 0.0, 0.0, 0.0, 0.0, 0.0, 0.0)",0.62109375,1.0146484375,0.3271484375,"(0.0, 0.0, 0.0, 0.0, 0.0, 0.0, 0.0, 0.0, 0.0)"
2022/11/28/23:10:26.753602,12634,1669698626,753211736,RU_myo,0.8566007718017447,0.46498394467619286,-0.16266503184064768,0.1535094015306675,"(0.0, 0.0, 0.0, 0.0, 0.0, 0.0, 0.0, 0.0, 0.0)",-86.0625,-73.125,-128.875,"(0.0, 0.0, 0.0, 0.0, 0.0, 0.0, 0.0, 0.0, 0.0)",0.6474609375,0.98779296875,0.32666015625,"(0.0, 0.0, 0.0, 0.0, 0.0, 0.0, 0.0, 0.0, 0.0)"
2022/11/28/23:10:26.776640,12635,1669698626,776274204,RU_myo,0.8651821372160681,0.4566696825855817,-0.1683366726237683,0.1207287666605561,"(0.0, 0.0, 0.0, 0.0, 0.0, 0.0, 0.0, 0.0, 0.0)",-104.0625,-95.9375,-147.625,"(0.0, 0.0, 0.0, 0.0, 0.0, 0.0, 0.0, 0.0, 0.0)",0.669921875,0.9990234375,0.3203125,"(0.0, 0.0, 0.0, 0.0, 0.0, 0.0, 0.0, 0.0, 0.0)"
2022/11/28/23:10:26.800420,12636,1669698626,799968004,RU_myo,0.8732696246549619,0.44661451342701874,-0.176338571722107,0.08270639137537383,"(0.0, 0.0, 0.0, 0.0, 0.0, 0.0, 0.0, 0.0, 0.0)",-118.5625,-120.0625,-165.875,"(0.0, 0.0, 0.0, 0.0, 0.0, 0.0, 0.0, 0.0, 0.0)",0.67724609375,0.994140625,0.29296875,"(0.0, 0.0, 0.0, 0.0, 0.0, 0.0, 0.0, 0.0, 0.0)"
2022/11/28/23:10:26.820418,12637,1669698626,819853782,RU_myo,0.88124251593392,0.4325644625587817,-0.1862828756496969,0.03997879539664203,"(0.0, 0.0, 0.0, 0.0, 0.0, 0.0, 0.0, 0.0, 0.0)",-143.75,-140.1875,-180.9375,"(0.0, 0.0, 0.0, 0.0, 0.0, 0.0, 0.0, 0.0, 0.0)",0.6552734375,0.97705078125,0.31689453125,"(0.0, 0.0, 0.0, 0.0, 0.0, 0.0, 0.0, 0.0, 0.0)"
2022/11/28/23:10:26.836748,12638,1669698626,836296796,RU_myo,0.8887459979906617,0.4139465255389511,-0.19678024157145066,-0.007507434774593186,"(0.0, 0.0, 0.0, 0.0, 0.0, 0.0, 0.0, 0.0, 0.0)",-171.0625,-153.8125,-198.9375,"(0.0, 0.0, 0.0, 0.0, 0.0, 0.0, 0.0, 0.0, 0.0)",0.6591796875,0.9287109375,0.30517578125,"(0.0, 0.0, 0.0, 0.0, 0.0, 0.0, 0.0, 0.0, 0.0)"
2022/11/28/23:10:26.859405,12639,1669698626,859087467,RU_myo,0.8949709987815028,0.3899590609844521,-0.20843797045889872,-0.05926596466049507,"(0.0, 0.0, 0.0, 0.0, 0.0, 0.0, 0.0, 0.0, 0.0)",-201.0,-171.375,-212.0625,"(0.0, 0.0, 0.0, 0.0, 0.0, 0.0, 0.0, 0.0, 0.0)",0.61376953125,0.8544921875,0.24755859375,"(0.0, 0.0, 0.0, 0.0, 0.0, 0.0, 0.0, 0.0, 0.0)"
2022/11/28/23:10:26.881917,12640,1669698626,881564855,RU_myo,0.8989734563081914,0.36000444359761763,-0.22181352119934597,-0.11420283383708758,"(0.0, 0.0, 0.0, 0.0, 0.0, 0.0, 0.0, 0.0, 0.0)",-229.1875,-191.25,-219.25,"(0.0, 0.0, 0.0, 0.0, 0.0, 0.0, 0.0, 0.0, 0.0)",0.61767578125,0.7509765625,0.22705078125,"(0.0, 0.0, 0.0, 0.0, 0.0, 0.0, 0.0, 0.0, 0.0)"
2022/11/28/23:10:26.896935,12641,1669698626,896446704,RU_myo,0.9004885831132177,0.3230112913871855,-0.23578847668720665,-0.17084440751941274,"(0.0, 0.0, 0.0, 0.0, 0.0, 0.0, 0.0, 0.0, 0.0)",-261.375,-205.0625,-220.3125,"(0.0, 0.0, 0.0, 0.0, 0.0, 0.0, 0.0, 0.0, 0.0)",0.64794921875,0.55126953125,0.18505859375,"(0.0, 0.0, 0.0, 0.0, 0.0, 0.0, 0.0, 0.0, 0.0)"
2022/11/28/23:10:26.919652,12642,1669698626,919162034,RU_myo,0.8985819066401294,0.2813180279652463,-0.24786993091058043,-0.2279719753634617,"(0.0, 0.0, 0.0, 0.0, 0.0, 0.0, 0.0, 0.0, 0.0)",-279.625,-206.3125,-222.9375,"(0.0, 0.0, 0.0, 0.0, 0.0, 0.0, 0.0, 0.0, 0.0)",0.5927734375,0.4130859375,0.24609375,"(0.0, 0.0, 0.0, 0.0, 0.0, 0.0, 0.0, 0.0, 0.0)"
2022/11/28/23:10:26.940567,12643,1669698626,939935445,RU_myo,0.8917846663076716,0.23913574174207497,-0.25854492139342256,-0.28405761665840146,"(0.0, 0.0, 0.0, 0.0, 0.0, 0.0, 0.0, 0.0, 0.0)",-272.9375,-205.0,-225.75,"(0.0, 0.0, 0.0, 0.0, 0.0, 0.0, 0.0, 0.0, 0.0)",0.580078125,0.259765625,0.2802734375,"(0.0, 0.0, 0.0, 0.0, 0.0, 0.0, 0.0, 0.0, 0.0)"
2022/11/28/23:10:26.957016,12644,1669698626,956199169,RU_myo,0.8798065516875282,0.19891013194239712,-0.2687941764572927,-0.3378237435720062,"(0.0, 0.0, 0.0, 0.0, 0.0, 0.0, 0.0, 0.0, 0.0)",-251.125,-203.0,-226.3125,"(0.0, 0.0, 0.0, 0.0, 0.0, 0.0, 0.0, 0.0, 0.0)",0.66845703125,0.18798828125,0.3779296875,"(0.0, 0.0, 0.0, 0.0, 0.0, 0.0, 0.0, 0.0, 0.0)"
2022/11/28/23:10:26.979319,12645,1669698626,979026079,RU_myo,0.8636070353265161,0.16144184100916215,-0.2785100644706264,-0.38800974793771026,"(0.0, 0.0, 0.0, 0.0, 0.0, 0.0, 0.0, 0.0, 0.0)",-226.0625,-197.5625,-222.125,"(0.0, 0.0, 0.0, 0.0, 0.0, 0.0, 0.0, 0.0, 0.0)",0.72021484375,0.0712890625,0.47265625,"(0.0, 0.0, 0.0, 0.0, 0.0, 0.0, 0.0, 0.0, 0.0)"
2022/11/28/23:10:27.000579,12646,1669698626,999791145,RU_myo,0.8439609193179844,0.12701834621398175,-0.28882787808003924,-0.4337911516303548,"(0.0, 0.0, 0.0, 0.0, 0.0, 0.0, 0.0, 0.0, 0.0)",-195.5625,-195.125,-213.1875,"(0.0, 0.0, 0.0, 0.0, 0.0, 0.0, 0.0, 0.0, 0.0)",0.81689453125,-0.10888671875,0.6328125,"(0.0, 0.0, 0.0, 0.0, 0.0, 0.0, 0.0, 0.0, 0.0)"
2022/11/28/23:10:27.016662,12647,1669698627,16193389,RU_myo,0.8248890319935664,0.10211167965410556,-0.29602011137024026,-0.47064145954142733,"(0.0, 0.0, 0.0, 0.0, 0.0, 0.0, 0.0, 0.0, 0.0)",-138.5625,-151.0,-187.5,"(0.0, 0.0, 0.0, 0.0, 0.0, 0.0, 0.0, 0.0, 0.0)",0.8642578125,-0.18896484375,1.05908203125,"(0.0, 0.0, 0.0, 0.0, 0.0, 0.0, 0.0, 0.0, 0.0)"
2022/11/28/23:10:27.039245,12648,1669698627,38840532,RU_myo,0.8073046705806961,0.08569258013875386,-0.3098726704875024,-0.4948685468411797,"(0.0, 0.0, 0.0, 0.0, 0.0, 0.0, 0.0, 0.0, 0.0)",-63.0,-154.0625,-130.0625,"(0.0, 0.0, 0.0, 0.0, 0.0, 0.0, 0.0, 0.0, 0.0)",0.3544921875,-0.2216796875,0.67431640625,"(0.0, 0.0, 0.0, 0.0, 0.0, 0.0, 0.0, 0.0, 0.0)"
2022/11/28/23:10:27.060166,12649,1669698627,59494256,RU_myo,0.7860221782026768,0.07116802762729625,-0.3343554505508824,-0.5150831776558774,"(0.0, 0.0, 0.0, 0.0, 0.0, 0.0, 0.0, 0.0, 0.0)",-18.375,-201.0,-119.1875,"(0.0, 0.0, 0.0, 0.0, 0.0, 0.0, 0.0, 0.0, 0.0)",0.517578125,0.0859375,0.71337890625,"(0.0, 0.0, 0.0, 0.0, 0.0, 0.0, 0.0, 0.0, 0.0)"
2022/11/28/23:10:27.077170,12650,1669698627,76801538,RU_myo,0.7632373401910837,0.05554146178119841,-0.35967674096329916,-0.53386941340675,"(0.0, 0.0, 0.0, 0.0, 0.0, 0.0, 0.0, 0.0, 0.0)",-18.375,-208.875,-116.0625,"(0.0, 0.0, 0.0, 0.0, 0.0, 0.0, 0.0, 0.0, 0.0)",0.841796875,0.271484375,0.90771484375,"(0.0, 0.0, 0.0, 0.0, 0.0, 0.0, 0.0, 0.0, 0.0)"
2022/11/28/23:10:27.099376,12651,1669698627,98995208,RU_myo,0.7448622126379674,0.043212262090108235,-0.3794500471952018,-0.5471111827340822,"(0.0, 0.0, 0.0, 0.0, 0.0, 0.0, 0.0, 0.0, 0.0)",-9.0625,-167.3125,-86.4375,"(0.0, 0.0, 0.0, 0.0, 0.0, 0.0, 0.0, 0.0, 0.0)",0.75244140625,0.2802734375,1.12353515625,"(0.0, 0.0, 0.0, 0.0, 0.0, 0.0, 0.0, 0.0, 0.0)"
2022/11/28/23:10:27.120982,12652,1669698627,119977474,RU_myo,0.7305632813628263,0.03338497200546917,-0.39695769273047804,-0.5546055587087722,"(0.0, 0.0, 0.0, 0.0, 0.0, 0.0, 0.0, 0.0, 0.0)",6.3125,-143.375,-52.3125,"(0.0, 0.0, 0.0, 0.0, 0.0, 0.0, 0.0, 0.0, 0.0)",0.32861328125,0.13720703125,0.90478515625,"(0.0, 0.0, 0.0, 0.0, 0.0, 0.0, 0.0, 0.0, 0.0)"
