time,.header.seq,.header.stamp.secs,.header.stamp.nsecs,.header.frame_id,.orientation.x,.orientation.y,.orientation.z,.orientation.w,.orientation_covariance,.angular_velocity.x,.angular_velocity.y,.angular_velocity.z,.angular_velocity_covariance,.linear_acceleration.x,.linear_acceleration.y,.linear_acceleration.z,.linear_acceleration_covariance
2022/11/28/22:58:31.400954,2402,1669697911,400654077,RL_myo,0.6992776269070065,0.5764142365811092,-0.2503654382100498,-0.34069719066028714,"(0.0, 0.0, 0.0, 0.0, 0.0, 0.0, 0.0, 0.0, 0.0)",46.5625,173.5625,117.3125,"(0.0, 0.0, 0.0, 0.0, 0.0, 0.0, 0.0, 0.0, 0.0)",0.2109375,0.64794921875,0.0126953125,"(0.0, 0.0, 0.0, 0.0, 0.0, 0.0, 0.0, 0.0, 0.0)"
2022/11/28/22:58:31.420776,2403,1669697911,420352458,RL_myo,0.7093650225570509,0.5828365686110204,-0.2474415592364726,-0.30963764923695747,"(0.0, 0.0, 0.0, 0.0, 0.0, 0.0, 0.0, 0.0, 0.0)",28.6875,142.25,120.5,"(0.0, 0.0, 0.0, 0.0, 0.0, 0.0, 0.0, 0.0, 0.0)",0.26953125,0.75439453125,0.0126953125,"(0.0, 0.0, 0.0, 0.0, 0.0, 0.0, 0.0, 0.0, 0.0)"
2022/11/28/22:58:31.441522,2404,1669697911,441091060,RL_myo,0.7164978263072397,0.5875294382855004,-0.2473165680379023,-0.28332761817175284,"(0.0, 0.0, 0.0, 0.0, 0.0, 0.0, 0.0, 0.0, 0.0)",29.9375,107.8125,107.875,"(0.0, 0.0, 0.0, 0.0, 0.0, 0.0, 0.0, 0.0, 0.0)",0.30126953125,0.81396484375,0.0078125,"(0.0, 0.0, 0.0, 0.0, 0.0, 0.0, 0.0, 0.0, 0.0)"
2022/11/28/22:58:31.459852,2405,1669697911,459408044,RL_myo,0.7210051434498638,0.5908787601572955,-0.2506092541272446,-0.2611682899197466,"(0.0, 0.0, 0.0, 0.0, 0.0, 0.0, 0.0, 0.0, 0.0)",27.0,77.8125,78.5625,"(0.0, 0.0, 0.0, 0.0, 0.0, 0.0, 0.0, 0.0, 0.0)",0.4248046875,0.87158203125,0.044921875,"(0.0, 0.0, 0.0, 0.0, 0.0, 0.0, 0.0, 0.0, 0.0)"
2022/11/28/22:58:31.480804,2406,1669697911,480450630,RL_myo,0.725002473344865,0.5922460851039927,-0.25287803056640645,-0.24427175436320508,"(0.0, 0.0, 0.0, 0.0, 0.0, 0.0, 0.0, 0.0, 0.0)",13.625,60.75,54.875,"(0.0, 0.0, 0.0, 0.0, 0.0, 0.0, 0.0, 0.0, 0.0)",0.45556640625,0.90478515625,0.072265625,"(0.0, 0.0, 0.0, 0.0, 0.0, 0.0, 0.0, 0.0, 0.0)"
2022/11/28/22:58:31.501360,2407,1669697911,500952005,RL_myo,0.7290142507664206,0.5916832005132017,-0.25543575347098707,-0.23065512840307292,"(0.0, 0.0, 0.0, 0.0, 0.0, 0.0, 0.0, 0.0, 0.0)",-1.4375,44.875,50.5625,"(0.0, 0.0, 0.0, 0.0, 0.0, 0.0, 0.0, 0.0, 0.0)",0.3994140625,0.91943359375,0.03759765625,"(0.0, 0.0, 0.0, 0.0, 0.0, 0.0, 0.0, 0.0, 0.0)"
2022/11/28/22:58:31.519740,2408,1669697911,519317150,RL_myo,0.7314227152081247,0.5913396699437797,-0.2583753945986808,-0.22040953222202606,"(0.0, 0.0, 0.0, 0.0, 0.0, 0.0, 0.0, 0.0, 0.0)",-1.125,29.3125,41.6875,"(0.0, 0.0, 0.0, 0.0, 0.0, 0.0, 0.0, 0.0, 0.0)",0.33740234375,1.01953125,0.021484375,"(0.0, 0.0, 0.0, 0.0, 0.0, 0.0, 0.0, 0.0, 0.0)"
2022/11/28/22:58:31.540368,2409,1669697911,539995193,RL_myo,0.7315948485787298,0.592185317946841,-0.2608740516290248,-0.21454662879644879,"(0.0, 0.0, 0.0, 0.0, 0.0, 0.0, 0.0, 0.0, 0.0)",6.4375,13.6875,21.375,"(0.0, 0.0, 0.0, 0.0, 0.0, 0.0, 0.0, 0.0, 0.0)",0.2900390625,1.03857421875,0.05419921875,"(0.0, 0.0, 0.0, 0.0, 0.0, 0.0, 0.0, 0.0, 0.0)"
2022/11/28/22:58:31.561537,2410,1669697911,561064958,RL_myo,0.7330521386946177,0.5905922143221582,-0.2620920802293662,-0.212469150274435,"(0.0, 0.0, 0.0, 0.0, 0.0, 0.0, 0.0, 0.0, 0.0)",-12.8125,3.4375,11.4375,"(0.0, 0.0, 0.0, 0.0, 0.0, 0.0, 0.0, 0.0, 0.0)",0.20947265625,0.9619140625,0.0751953125,"(0.0, 0.0, 0.0, 0.0, 0.0, 0.0, 0.0, 0.0, 0.0)"
2022/11/28/22:58:31.579728,2411,1669697911,579315662,RL_myo,0.7321971745734633,0.5908970362658968,-0.26270228737614093,-0.21381182915395483,"(0.0, 0.0, 0.0, 0.0, 0.0, 0.0, 0.0, 0.0, 0.0)",-0.4375,-7.8125,-3.0,"(0.0, 0.0, 0.0, 0.0, 0.0, 0.0, 0.0, 0.0, 0.0)",0.125,1.1357421875,0.14453125,"(0.0, 0.0, 0.0, 0.0, 0.0, 0.0, 0.0, 0.0, 0.0)"
2022/11/28/22:58:31.600554,2412,1669697911,600235939,RL_myo,0.7310998322265961,0.5919357299159734,-0.26050543362356926,-0.21735235452988053,"(0.0, 0.0, 0.0, 0.0, 0.0, 0.0, 0.0, 0.0, 0.0)",-5.75,-3.3125,-19.5625,"(0.0, 0.0, 0.0, 0.0, 0.0, 0.0, 0.0, 0.0, 0.0)",0.0576171875,1.12060546875,0.10302734375,"(0.0, 0.0, 0.0, 0.0, 0.0, 0.0, 0.0, 0.0, 0.0)"
2022/11/28/22:58:31.621870,2413,1669697911,621219158,RL_myo,0.7326843182595857,0.5896753747672323,-0.25928382072365214,-0.2196099780987995,"(0.0, 0.0, 0.0, 0.0, 0.0, 0.0, 0.0, 0.0, 0.0)",-24.875,-3.25,-3.5625,"(0.0, 0.0, 0.0, 0.0, 0.0, 0.0, 0.0, 0.0, 0.0)",0.0595703125,1.037109375,0.1083984375,"(0.0, 0.0, 0.0, 0.0, 0.0, 0.0, 0.0, 0.0, 0.0)"
2022/11/28/22:58:31.639530,2414,1669697911,639285326,RL_myo,0.7340580992892419,0.5880521976178743,-0.25667007379937323,-0.2224270508739396,"(0.0, 0.0, 0.0, 0.0, 0.0, 0.0, 0.0, 0.0, 0.0)",-15.3125,-0.3125,-9.3125,"(0.0, 0.0, 0.0, 0.0, 0.0, 0.0, 0.0, 0.0, 0.0)",0.00927734375,0.9541015625,0.22265625,"(0.0, 0.0, 0.0, 0.0, 0.0, 0.0, 0.0, 0.0, 0.0)"
2022/11/28/22:58:31.661464,2415,1669697911,661070823,RL_myo,0.7333372206728193,0.5885008307721451,-0.2553710304864815,-0.22509760048617206,"(0.0, 0.0, 0.0, 0.0, 0.0, 0.0, 0.0, 0.0, 0.0)",-0.4375,-5.125,-11.3125,"(0.0, 0.0, 0.0, 0.0, 0.0, 0.0, 0.0, 0.0, 0.0)",0.02294921875,0.9736328125,0.1904296875,"(0.0, 0.0, 0.0, 0.0, 0.0, 0.0, 0.0, 0.0, 0.0)"
2022/11/28/22:58:31.681376,2416,1669697911,680982828,RL_myo,0.732739133747363,0.5891820789723694,-0.2542156178307178,-0.22656623610747284,"(0.0, 0.0, 0.0, 0.0, 0.0, 0.0, 0.0, 0.0, 0.0)",0.5,-1.25,-5.875,"(0.0, 0.0, 0.0, 0.0, 0.0, 0.0, 0.0, 0.0, 0.0)",0.02587890625,1.0654296875,0.18310546875,"(0.0, 0.0, 0.0, 0.0, 0.0, 0.0, 0.0, 0.0, 0.0)"
2022/11/28/22:58:31.700979,2417,1669697911,700719356,RL_myo,0.7321198711442002,0.5900294117841587,-0.25305285416955847,-0.2276621191636404,"(0.0, 0.0, 0.0, 0.0, 0.0, 0.0, 0.0, 0.0, 0.0)",0.9375,0.0625,-1.75,"(0.0, 0.0, 0.0, 0.0, 0.0, 0.0, 0.0, 0.0, 0.0)",-0.02001953125,1.03271484375,0.16015625,"(0.0, 0.0, 0.0, 0.0, 0.0, 0.0, 0.0, 0.0, 0.0)"
2022/11/28/22:58:31.722488,2418,1669697911,722224235,RL_myo,0.7322702913185106,0.5896860285428133,-0.2520860467738142,-0.22913584009416427,"(0.0, 0.0, 0.0, 0.0, 0.0, 0.0, 0.0, 0.0, 0.0)",-5.375,-2.5625,-1.5,"(0.0, 0.0, 0.0, 0.0, 0.0, 0.0, 0.0, 0.0, 0.0)",-0.00048828125,1.01513671875,0.18115234375,"(0.0, 0.0, 0.0, 0.0, 0.0, 0.0, 0.0, 0.0, 0.0)"
2022/11/28/22:58:31.741597,2419,1669697911,741033077,RL_myo,0.7323570394117054,0.5889251665375069,-0.25195181754242185,-0.23095583274722004,"(0.0, 0.0, 0.0, 0.0, 0.0, 0.0, 0.0, 0.0, 0.0)",-4.875,-7.0,-4.6875,"(0.0, 0.0, 0.0, 0.0, 0.0, 0.0, 0.0, 0.0, 0.0)",0.06494140625,1.0078125,0.2080078125,"(0.0, 0.0, 0.0, 0.0, 0.0, 0.0, 0.0, 0.0, 0.0)"
2022/11/28/22:58:31.759491,2420,1669697911,759153127,RL_myo,0.7322040391582585,0.5884000448054029,-0.25226736360795954,-0.23243022516794337,"(0.0, 0.0, 0.0, 0.0, 0.0, 0.0, 0.0, 0.0, 0.0)",-1.6875,-7.625,-4.0625,"(0.0, 0.0, 0.0, 0.0, 0.0, 0.0, 0.0, 0.0, 0.0)",0.08740234375,0.97802734375,0.2080078125,"(0.0, 0.0, 0.0, 0.0, 0.0, 0.0, 0.0, 0.0, 0.0)"
2022/11/28/22:58:31.782863,2421,1669697911,782539844,RL_myo,0.7319696292905575,0.588102683306748,-0.25245383478533573,-0.2337151192923236,"(0.0, 0.0, 0.0, 0.0, 0.0, 0.0, 0.0, 0.0, 0.0)",-1.5,-6.5,-1.125,"(0.0, 0.0, 0.0, 0.0, 0.0, 0.0, 0.0, 0.0, 0.0)",0.044921875,0.9912109375,0.18896484375,"(0.0, 0.0, 0.0, 0.0, 0.0, 0.0, 0.0, 0.0, 0.0)"
2022/11/28/22:58:31.801167,2422,1669697911,800822973,RL_myo,0.7311063896552481,0.5883398305131856,-0.2528170534272865,-0.2354213846134824,"(0.0, 0.0, 0.0, 0.0, 0.0, 0.0, 0.0, 0.0, 0.0)",-0.375,-8.9375,-1.625,"(0.0, 0.0, 0.0, 0.0, 0.0, 0.0, 0.0, 0.0, 0.0)",0.01611328125,1.0625,0.1611328125,"(0.0, 0.0, 0.0, 0.0, 0.0, 0.0, 0.0, 0.0, 0.0)"
2022/11/28/22:58:31.819489,2423,1669697911,819186449,RL_myo,0.7300337068905657,0.5884336567286969,-0.25256077912491937,-0.23876698113501318,"(0.0, 0.0, 0.0, 0.0, 0.0, 0.0, 0.0, 0.0, 0.0)",-3.75,-12.9375,-9.75,"(0.0, 0.0, 0.0, 0.0, 0.0, 0.0, 0.0, 0.0, 0.0)",0.00537109375,1.1474609375,0.1748046875,"(0.0, 0.0, 0.0, 0.0, 0.0, 0.0, 0.0, 0.0, 0.0)"
2022/11/28/22:58:31.842099,2424,1669697911,841719388,RL_myo,0.7288464446043399,0.5887047950932802,-0.2505581320744339,-0.2437829913532982,"(0.0, 0.0, 0.0, 0.0, 0.0, 0.0, 0.0, 0.0, 0.0)",-5.375,-11.75,-19.75,"(0.0, 0.0, 0.0, 0.0, 0.0, 0.0, 0.0, 0.0, 0.0)",-0.05615234375,1.14697265625,0.205078125,"(0.0, 0.0, 0.0, 0.0, 0.0, 0.0, 0.0, 0.0, 0.0)"
2022/11/28/22:58:31.861756,2425,1669697911,861173391,RL_myo,0.7282193948261574,0.5887523495510111,-0.2458526294828398,-0.25024721471689254,"(0.0, 0.0, 0.0, 0.0, 0.0, 0.0, 0.0, 0.0, 0.0)",-13.125,-6.0625,-27.0,"(0.0, 0.0, 0.0, 0.0, 0.0, 0.0, 0.0, 0.0, 0.0)",-0.16796875,1.1416015625,0.22119140625,"(0.0, 0.0, 0.0, 0.0, 0.0, 0.0, 0.0, 0.0, 0.0)"
2022/11/28/22:58:31.880017,2426,1669697911,879629850,RL_myo,0.727981780395623,0.5887576300575317,-0.2368214394177092,-0.2594659636506912,"(0.0, 0.0, 0.0, 0.0, 0.0, 0.0, 0.0, 0.0, 0.0)",-21.5625,1.5625,-46.4375,"(0.0, 0.0, 0.0, 0.0, 0.0, 0.0, 0.0, 0.0, 0.0)",-0.28271484375,1.15234375,0.28369140625,"(0.0, 0.0, 0.0, 0.0, 0.0, 0.0, 0.0, 0.0, 0.0)"
2022/11/28/22:58:31.902344,2427,1669697911,902074337,RL_myo,0.727860986013345,0.5879651889531701,-0.22766637130648024,-0.26959848848812956,"(0.0, 0.0, 0.0, 0.0, 0.0, 0.0, 0.0, 0.0, 0.0)",-23.8125,0.1875,-60.375,"(0.0, 0.0, 0.0, 0.0, 0.0, 0.0, 0.0, 0.0, 0.0)",-0.154296875,1.0546875,0.314453125,"(0.0, 0.0, 0.0, 0.0, 0.0, 0.0, 0.0, 0.0, 0.0)"
2022/11/28/22:58:31.921370,2428,1669697911,920892238,RL_myo,0.7252479267210051,0.5896225359472235,-0.21674426761372573,-0.2817492366389631,"(0.0, 0.0, 0.0, 0.0, 0.0, 0.0, 0.0, 0.0, 0.0)",-10.25,2.0625,-86.6875,"(0.0, 0.0, 0.0, 0.0, 0.0, 0.0, 0.0, 0.0, 0.0)",-0.123046875,1.033203125,0.3173828125,"(0.0, 0.0, 0.0, 0.0, 0.0, 0.0, 0.0, 0.0, 0.0)"
2022/11/28/22:58:31.944037,2429,1669697911,943536043,RL_myo,0.7188937859174048,0.5952938609316054,-0.2051453569764304,-0.2945035249661639,"(0.0, 0.0, 0.0, 0.0, 0.0, 0.0, 0.0, 0.0, 0.0)",12.4375,6.125,-107.75,"(0.0, 0.0, 0.0, 0.0, 0.0, 0.0, 0.0, 0.0, 0.0)",-0.15771484375,1.07177734375,0.35595703125,"(0.0, 0.0, 0.0, 0.0, 0.0, 0.0, 0.0, 0.0, 0.0)"
2022/11/28/22:58:31.962179,2430,1669697911,961794614,RL_myo,0.7099855527098813,0.6034755123489165,-0.19232844537386828,-0.30781096477956765,"(0.0, 0.0, 0.0, 0.0, 0.0, 0.0, 0.0, 0.0, 0.0)",28.25,10.75,-123.3125,"(0.0, 0.0, 0.0, 0.0, 0.0, 0.0, 0.0, 0.0, 0.0)",-0.12353515625,1.1533203125,0.3056640625,"(0.0, 0.0, 0.0, 0.0, 0.0, 0.0, 0.0, 0.0, 0.0)"
2022/11/28/22:58:31.981505,2431,1669697911,981054544,RL_myo,0.7023019012393878,0.6100126195886009,-0.17670467617660593,-0.32160861442989175,"(0.0, 0.0, 0.0, 0.0, 0.0, 0.0, 0.0, 0.0, 0.0)",11.3125,19.5625,-132.1875,"(0.0, 0.0, 0.0, 0.0, 0.0, 0.0, 0.0, 0.0, 0.0)",-0.09765625,1.1943359375,0.30029296875,"(0.0, 0.0, 0.0, 0.0, 0.0, 0.0, 0.0, 0.0, 0.0)"
2022/11/28/22:58:32.003727,2432,1669697912,3332138,RL_myo,0.69770592028398,0.6131096115171533,-0.1588164469056877,-0.33478409349642463,"(0.0, 0.0, 0.0, 0.0, 0.0, 0.0, 0.0, 0.0, 0.0)",-16.875,27.25,-129.125,"(0.0, 0.0, 0.0, 0.0, 0.0, 0.0, 0.0, 0.0, 0.0)",-0.1123046875,1.103515625,0.27978515625,"(0.0, 0.0, 0.0, 0.0, 0.0, 0.0, 0.0, 0.0, 0.0)"
2022/11/28/22:58:32.022515,2433,1669697912,22216796,RL_myo,0.6946399358626346,0.6146229816480739,-0.1398923410066917,-0.346618064824172,"(0.0, 0.0, 0.0, 0.0, 0.0, 0.0, 0.0, 0.0, 0.0)",-29.5625,34.6875,-122.8125,"(0.0, 0.0, 0.0, 0.0, 0.0, 0.0, 0.0, 0.0, 0.0)",-0.11767578125,0.93603515625,0.25048828125,"(0.0, 0.0, 0.0, 0.0, 0.0, 0.0, 0.0, 0.0, 0.0)"
2022/11/28/22:58:32.041472,2434,1669697912,41034221,RL_myo,0.6904425005288077,0.6173210263745015,-0.12164532386438417,-0.35694021774155477,"(0.0, 0.0, 0.0, 0.0, 0.0, 0.0, 0.0, 0.0, 0.0)",-17.875,39.0,-118.125,"(0.0, 0.0, 0.0, 0.0, 0.0, 0.0, 0.0, 0.0, 0.0)",-0.11181640625,0.81494140625,0.24462890625,"(0.0, 0.0, 0.0, 0.0, 0.0, 0.0, 0.0, 0.0, 0.0)"
2022/11/28/22:58:32.063913,2435,1669697912,63463926,RL_myo,0.6838003004489651,0.6225799397107422,-0.10596066424880866,-0.3654910469596004,"(0.0, 0.0, 0.0, 0.0, 0.0, 0.0, 0.0, 0.0, 0.0)",7.0,38.8125,-108.5625,"(0.0, 0.0, 0.0, 0.0, 0.0, 0.0, 0.0, 0.0, 0.0)",-0.11376953125,0.763671875,0.2255859375,"(0.0, 0.0, 0.0, 0.0, 0.0, 0.0, 0.0, 0.0, 0.0)"
2022/11/28/22:58:32.082643,2436,1669697912,82322597,RL_myo,0.6773732752529733,0.6279344256444935,-0.09301828000410266,-0.3717679419324077,"(0.0, 0.0, 0.0, 0.0, 0.0, 0.0, 0.0, 0.0, 0.0)",14.5625,37.875,-96.5625,"(0.0, 0.0, 0.0, 0.0, 0.0, 0.0, 0.0, 0.0, 0.0)",-0.140625,0.7568359375,0.18359375,"(0.0, 0.0, 0.0, 0.0, 0.0, 0.0, 0.0, 0.0, 0.0)"
2022/11/28/22:58:32.101389,2437,1669697912,100975513,RL_myo,0.6724796410246447,0.6322578146101193,-0.08135917239842544,-0.3760344044611396,"(0.0, 0.0, 0.0, 0.0, 0.0, 0.0, 0.0, 0.0, 0.0)",6.4375,37.75,-78.6875,"(0.0, 0.0, 0.0, 0.0, 0.0, 0.0, 0.0, 0.0, 0.0)",-0.185546875,0.7490234375,0.14111328125,"(0.0, 0.0, 0.0, 0.0, 0.0, 0.0, 0.0, 0.0, 0.0)"
2022/11/28/22:58:32.124253,2438,1669697912,123632192,RL_myo,0.6693826479561797,0.6354465895752519,-0.0718394617164606,-0.3781184922119571,"(0.0, 0.0, 0.0, 0.0, 0.0, 0.0, 0.0, 0.0, 0.0)",0.3125,34.75,-56.0,"(0.0, 0.0, 0.0, 0.0, 0.0, 0.0, 0.0, 0.0, 0.0)",-0.21484375,0.70068359375,0.115234375,"(0.0, 0.0, 0.0, 0.0, 0.0, 0.0, 0.0, 0.0, 0.0)"
2022/11/28/22:58:32.142123,2439,1669697912,141814947,RL_myo,0.6672588728613551,0.6378389335346836,-0.06451633997570914,-0.37916320144664634,"(0.0, 0.0, 0.0, 0.0, 0.0, 0.0, 0.0, 0.0, 0.0)",0.4375,29.625,-41.375,"(0.0, 0.0, 0.0, 0.0, 0.0, 0.0, 0.0, 0.0, 0.0)",-0.22119140625,0.6796875,0.1328125,"(0.0, 0.0, 0.0, 0.0, 0.0, 0.0, 0.0, 0.0, 0.0)"
2022/11/28/22:58:32.161475,2440,1669697912,161077737,RL_myo,0.6650656002006279,0.6403453755235671,-0.05884023849058419,-0.3797148585580127,"(0.0, 0.0, 0.0, 0.0, 0.0, 0.0, 0.0, 0.0, 0.0)",6.0,25.5,-33.1875,"(0.0, 0.0, 0.0, 0.0, 0.0, 0.0, 0.0, 0.0, 0.0)",-0.2333984375,0.68115234375,0.14501953125,"(0.0, 0.0, 0.0, 0.0, 0.0, 0.0, 0.0, 0.0, 0.0)"
2022/11/28/22:58:32.183929,2441,1669697912,183445930,RL_myo,0.6628051288897185,0.6434562730228762,-0.05584922119293605,-0.3788591431088022,"(0.0, 0.0, 0.0, 0.0, 0.0, 0.0, 0.0, 0.0, 0.0)",13.4375,21.0,-17.0625,"(0.0, 0.0, 0.0, 0.0, 0.0, 0.0, 0.0, 0.0, 0.0)",-0.26708984375,0.69580078125,0.1220703125,"(0.0, 0.0, 0.0, 0.0, 0.0, 0.0, 0.0, 0.0, 0.0)"
2022/11/28/22:58:32.202006,2442,1669697912,201704502,RL_myo,0.6609739083833702,0.6464470092980215,-0.05456742765673035,-0.3771500396990345,"(0.0, 0.0, 0.0, 0.0, 0.0, 0.0, 0.0, 0.0, 0.0)",14.5625,16.75,-4.625,"(0.0, 0.0, 0.0, 0.0, 0.0, 0.0, 0.0, 0.0, 0.0)",-0.32958984375,0.75732421875,0.11376953125,"(0.0, 0.0, 0.0, 0.0, 0.0, 0.0, 0.0, 0.0, 0.0)"
2022/11/28/22:58:32.221827,2443,1669697912,221272468,RL_myo,0.6610349396176667,0.6476067136974556,-0.05310252977538043,-0.37525787707935504,"(0.0, 0.0, 0.0, 0.0, 0.0, 0.0, 0.0, 0.0, 0.0)",-0.9375,13.9375,2.0625,"(0.0, 0.0, 0.0, 0.0, 0.0, 0.0, 0.0, 0.0, 0.0)",-0.39501953125,0.8251953125,0.103515625,"(0.0, 0.0, 0.0, 0.0, 0.0, 0.0, 0.0, 0.0, 0.0)"
2022/11/28/22:58:32.243891,2444,1669697912,243439674,RL_myo,0.6630817555119394,0.646663402029547,-0.05120817312909768,-0.373532800417256,"(0.0, 0.0, 0.0, 0.0, 0.0, 0.0, 0.0, 0.0, 0.0)",-15.3125,11.0,8.125,"(0.0, 0.0, 0.0, 0.0, 0.0, 0.0, 0.0, 0.0, 0.0)",-0.4453125,0.8251953125,0.13623046875,"(0.0, 0.0, 0.0, 0.0, 0.0, 0.0, 0.0, 0.0, 0.0)"
2022/11/28/22:58:32.262290,2445,1669697912,261980056,RL_myo,0.6649300600327617,0.6451542807551212,-0.04974462997307699,-0.37305420662017985,"(0.0, 0.0, 0.0, 0.0, 0.0, 0.0, 0.0, 0.0, 0.0)",-15.1875,3.4375,8.5,"(0.0, 0.0, 0.0, 0.0, 0.0, 0.0, 0.0, 0.0, 0.0)",-0.48388671875,0.78369140625,0.14794921875,"(0.0, 0.0, 0.0, 0.0, 0.0, 0.0, 0.0, 0.0, 0.0)"
2022/11/28/22:58:32.281380,2446,1669697912,280963182,RL_myo,0.664755987798554,0.6451020140522374,-0.05041671526229048,-0.3733644639944684,"(0.0, 0.0, 0.0, 0.0, 0.0, 0.0, 0.0, 0.0, 0.0)",2.875,-4.6875,8.125,"(0.0, 0.0, 0.0, 0.0, 0.0, 0.0, 0.0, 0.0, 0.0)",-0.48974609375,0.7998046875,0.16162109375,"(0.0, 0.0, 0.0, 0.0, 0.0, 0.0, 0.0, 0.0, 0.0)"
2022/11/28/22:58:32.303831,2447,1669697912,303384065,RL_myo,0.6635264154237401,0.6458258671326091,-0.05236920839238056,-0.37403089630362246,"(0.0, 0.0, 0.0, 0.0, 0.0, 0.0, 0.0, 0.0, 0.0)",11.8125,-9.25,6.125,"(0.0, 0.0, 0.0, 0.0, 0.0, 0.0, 0.0, 0.0, 0.0)",-0.470703125,0.87109375,0.16796875,"(0.0, 0.0, 0.0, 0.0, 0.0, 0.0, 0.0, 0.0, 0.0)"
2022/11/28/22:58:32.322391,2448,1669697912,322056770,RL_myo,0.6632865720134906,0.6455859089156797,-0.05438376144879177,-0.3745826532112627,"(0.0, 0.0, 0.0, 0.0, 0.0, 0.0, 0.0, 0.0, 0.0)",3.375,-10.5625,4.375,"(0.0, 0.0, 0.0, 0.0, 0.0, 0.0, 0.0, 0.0, 0.0)",-0.42626953125,0.94970703125,0.1533203125,"(0.0, 0.0, 0.0, 0.0, 0.0, 0.0, 0.0, 0.0, 0.0)"
2022/11/28/22:58:32.343273,2449,1669697912,342913389,RL_myo,0.6639682148062263,0.6444971851571009,-0.055971580527423195,-0.3750156933047853,"(0.0, 0.0, 0.0, 0.0, 0.0, 0.0, 0.0, 0.0, 0.0)",-3.75,-9.75,5.25,"(0.0, 0.0, 0.0, 0.0, 0.0, 0.0, 0.0, 0.0, 0.0)",-0.4111328125,0.93310546875,0.1669921875,"(0.0, 0.0, 0.0, 0.0, 0.0, 0.0, 0.0, 0.0, 0.0)"
2022/11/28/22:58:32.359812,2450,1669697912,359421730,RL_myo,0.6641410175047652,0.6439988857359413,-0.05682522629325764,-0.3754371288182898,"(0.0, 0.0, 0.0, 0.0, 0.0, 0.0, 0.0, 0.0, 0.0)",-0.4375,-5.625,2.875,"(0.0, 0.0, 0.0, 0.0, 0.0, 0.0, 0.0, 0.0, 0.0)",-0.4228515625,0.89794921875,0.173828125,"(0.0, 0.0, 0.0, 0.0, 0.0, 0.0, 0.0, 0.0, 0.0)"
2022/11/28/22:58:32.382851,2451,1669697912,382532596,RL_myo,0.6635383724583501,0.644250530889328,-0.05694796260727078,-0.3760518731226102,"(0.0, 0.0, 0.0, 0.0, 0.0, 0.0, 0.0, 0.0, 0.0)",5.1875,-2.125,-1.625,"(0.0, 0.0, 0.0, 0.0, 0.0, 0.0, 0.0, 0.0, 0.0)",-0.44287109375,0.9052734375,0.19091796875,"(0.0, 0.0, 0.0, 0.0, 0.0, 0.0, 0.0, 0.0, 0.0)"
2022/11/28/22:58:32.402687,2452,1669697912,402366876,RL_myo,0.6628646080090747,0.6444313564788039,-0.056703611495435575,-0.3769660975197095,"(0.0, 0.0, 0.0, 0.0, 0.0, 0.0, 0.0, 0.0, 0.0)",4.625,-1.5,-4.3125,"(0.0, 0.0, 0.0, 0.0, 0.0, 0.0, 0.0, 0.0, 0.0)",-0.431640625,0.8935546875,0.19873046875,"(0.0, 0.0, 0.0, 0.0, 0.0, 0.0, 0.0, 0.0, 0.0)"
2022/11/28/22:58:32.423705,2453,1669697912,423377752,RL_myo,0.6626690733306805,0.6446634201454037,-0.05639736794303664,-0.376959030753457,"(0.0, 0.0, 0.0, 0.0, 0.0, 0.0, 0.0, 0.0, 0.0)",1.8125,1.875,-0.5,"(0.0, 0.0, 0.0, 0.0, 0.0, 0.0, 0.0, 0.0, 0.0)",-0.42041015625,0.8779296875,0.17626953125,"(0.0, 0.0, 0.0, 0.0, 0.0, 0.0, 0.0, 0.0, 0.0)"
2022/11/28/22:58:32.441933,2454,1669697912,441622495,RL_myo,0.6628365904634366,0.6446482567656369,-0.05505327850810495,-0.37688912947621733,"(0.0, 0.0, 0.0, 0.0, 0.0, 0.0, 0.0, 0.0, 0.0)",-1.8125,5.4375,-0.6875,"(0.0, 0.0, 0.0, 0.0, 0.0, 0.0, 0.0, 0.0, 0.0)",-0.4560546875,0.85693359375,0.181640625,"(0.0, 0.0, 0.0, 0.0, 0.0, 0.0, 0.0, 0.0, 0.0)"
2022/11/28/22:58:32.463583,2455,1669697912,463118791,RL_myo,0.6628674912077315,0.6446172720667451,-0.05407924467864181,-0.3770287746952262,"(0.0, 0.0, 0.0, 0.0, 0.0, 0.0, 0.0, 0.0, 0.0)",0.3125,3.625,-0.125,"(0.0, 0.0, 0.0, 0.0, 0.0, 0.0, 0.0, 0.0, 0.0)",-0.44189453125,0.8232421875,0.19140625,"(0.0, 0.0, 0.0, 0.0, 0.0, 0.0, 0.0, 0.0, 0.0)"
2022/11/28/22:58:32.484065,2456,1669697912,483532905,RL_myo,0.6626865710201565,0.6448025178462681,-0.0540794235906658,-0.37703002203108654,"(0.0, 0.0, 0.0, 0.0, 0.0, 0.0, 0.0, 0.0, 0.0)",3.6875,1.125,1.5625,"(0.0, 0.0, 0.0, 0.0, 0.0, 0.0, 0.0, 0.0, 0.0)",-0.4130859375,0.822265625,0.189453125,"(0.0, 0.0, 0.0, 0.0, 0.0, 0.0, 0.0, 0.0, 0.0)"
2022/11/28/22:58:32.501848,2457,1669697912,501582622,RL_myo,0.6625616864904696,0.6451660088626683,-0.054262306705668124,-0.3766011612755594,"(0.0, 0.0, 0.0, 0.0, 0.0, 0.0, 0.0, 0.0, 0.0)",3.75,1.75,3.5,"(0.0, 0.0, 0.0, 0.0, 0.0, 0.0, 0.0, 0.0, 0.0)",-0.41552734375,0.84228515625,0.16943359375,"(0.0, 0.0, 0.0, 0.0, 0.0, 0.0, 0.0, 0.0, 0.0)"
2022/11/28/22:58:32.523527,2458,1669697912,523054361,RL_myo,0.6625508318741777,0.6453995850978863,-0.0542003812716969,-0.37622877270128346,"(0.0, 0.0, 0.0, 0.0, 0.0, 0.0, 0.0, 0.0, 0.0)",1.6875,2.0,3.75,"(0.0, 0.0, 0.0, 0.0, 0.0, 0.0, 0.0, 0.0, 0.0)",-0.43798828125,0.85302734375,0.166015625,"(0.0, 0.0, 0.0, 0.0, 0.0, 0.0, 0.0, 0.0, 0.0)"
2022/11/28/22:58:32.544035,2459,1669697912,543524503,RL_myo,0.662852429842412,0.6451519505924764,-0.05432216045669859,-0.376104665993457,"(0.0, 0.0, 0.0, 0.0, 0.0, 0.0, 0.0, 0.0, 0.0)",-0.5625,-0.0625,3.875,"(0.0, 0.0, 0.0, 0.0, 0.0, 0.0, 0.0, 0.0, 0.0)",-0.42333984375,0.83935546875,0.17578125,"(0.0, 0.0, 0.0, 0.0, 0.0, 0.0, 0.0, 0.0, 0.0)"
2022/11/28/22:58:32.562161,2460,1669697912,561815977,RL_myo,0.6636337779874918,0.6442856764863389,-0.054687378375498266,-0.37615883139307565,"(0.0, 0.0, 0.0, 0.0, 0.0, 0.0, 0.0, 0.0, 0.0)",-3.0625,-2.3125,4.0625,"(0.0, 0.0, 0.0, 0.0, 0.0, 0.0, 0.0, 0.0, 0.0)",-0.40234375,0.84423828125,0.18896484375,"(0.0, 0.0, 0.0, 0.0, 0.0, 0.0, 0.0, 0.0, 0.0)"
2022/11/28/22:58:32.583244,2461,1669697912,582659244,RL_myo,0.6642641130853889,0.6435115817568001,-0.05481109745021403,-0.3763532593296433,"(0.0, 0.0, 0.0, 0.0, 0.0, 0.0, 0.0, 0.0, 0.0)",-3.9375,-2.5625,2.6875,"(0.0, 0.0, 0.0, 0.0, 0.0, 0.0, 0.0, 0.0, 0.0)",-0.42236328125,0.86279296875,0.1806640625,"(0.0, 0.0, 0.0, 0.0, 0.0, 0.0, 0.0, 0.0, 0.0)"
2022/11/28/22:58:32.604288,2462,1669697912,603597402,RL_myo,0.6643303622313209,0.643272481399843,-0.05511671417630309,-0.37660036153686605,"(0.0, 0.0, 0.0, 0.0, 0.0, 0.0, 0.0, 0.0, 0.0)",0.3125,-2.4375,2.5,"(0.0, 0.0, 0.0, 0.0, 0.0, 0.0, 0.0, 0.0, 0.0)",-0.43359375,0.88134765625,0.17529296875,"(0.0, 0.0, 0.0, 0.0, 0.0, 0.0, 0.0, 0.0, 0.0)"
2022/11/28/22:58:32.622143,2463,1669697912,621833562,RL_myo,0.6643187646840749,0.6430781426599975,-0.0554819695973745,-0.376898968387005,"(0.0, 0.0, 0.0, 0.0, 0.0, 0.0, 0.0, 0.0, 0.0)",1.0625,-2.5625,1.125,"(0.0, 0.0, 0.0, 0.0, 0.0, 0.0, 0.0, 0.0, 0.0)",-0.4228515625,0.88671875,0.18310546875,"(0.0, 0.0, 0.0, 0.0, 0.0, 0.0, 0.0, 0.0, 0.0)"
2022/11/28/22:58:32.645755,2464,1669697912,645390510,RL_myo,0.6645763672764583,0.6425418275458556,-0.055238943091953964,-0.3773949007044766,"(0.0, 0.0, 0.0, 0.0, 0.0, 0.0, 0.0, 0.0, 0.0)",-3.1875,-2.0625,-1.0,"(0.0, 0.0, 0.0, 0.0, 0.0, 0.0, 0.0, 0.0, 0.0)",-0.42333984375,0.8876953125,0.17431640625,"(0.0, 0.0, 0.0, 0.0, 0.0, 0.0, 0.0, 0.0, 0.0)"
2022/11/28/22:58:32.663839,2465,1669697912,663374662,RL_myo,0.6651102081046707,0.6416723518220063,-0.05438315090586965,-0.3780575047261017,"(0.0, 0.0, 0.0, 0.0, 0.0, 0.0, 0.0, 0.0, 0.0)",-7.3125,-1.4375,-1.6875,"(0.0, 0.0, 0.0, 0.0, 0.0, 0.0, 0.0, 0.0, 0.0)",-0.45166015625,0.88623046875,0.1669921875,"(0.0, 0.0, 0.0, 0.0, 0.0, 0.0, 0.0, 0.0, 0.0)"
2022/11/28/22:58:32.682315,2466,1669697912,681915044,RL_myo,0.6651621846913199,0.6412974008581114,-0.05352791667960062,-0.3787237434400477,"(0.0, 0.0, 0.0, 0.0, 0.0, 0.0, 0.0, 0.0, 0.0)",-4.375,-1.0625,-1.8125,"(0.0, 0.0, 0.0, 0.0, 0.0, 0.0, 0.0, 0.0, 0.0)",-0.466796875,0.88232421875,0.15966796875,"(0.0, 0.0, 0.0, 0.0, 0.0, 0.0, 0.0, 0.0, 0.0)"
2022/11/28/22:58:32.704986,2467,1669697912,704614639,RL_myo,0.6646885084917364,0.6411894198076852,-0.052857690390619265,-0.3798307243658472,"(0.0, 0.0, 0.0, 0.0, 0.0, 0.0, 0.0, 0.0, 0.0)",-0.1875,-2.625,-3.375,"(0.0, 0.0, 0.0, 0.0, 0.0, 0.0, 0.0, 0.0, 0.0)",-0.4775390625,0.86669921875,0.17333984375,"(0.0, 0.0, 0.0, 0.0, 0.0, 0.0, 0.0, 0.0, 0.0)"
2022/11/28/22:58:32.723716,2468,1669697912,723335027,RL_myo,0.6635919264420497,0.6415576470596379,-0.05249163509383395,-0.3811747222802244,"(0.0, 0.0, 0.0, 0.0, 0.0, 0.0, 0.0, 0.0, 0.0)",3.3125,-4.625,-3.5625,"(0.0, 0.0, 0.0, 0.0, 0.0, 0.0, 0.0, 0.0, 0.0)",-0.49365234375,0.87451171875,0.1513671875,"(0.0, 0.0, 0.0, 0.0, 0.0, 0.0, 0.0, 0.0, 0.0)"
2022/11/28/22:58:32.742379,2469,1669697912,741901874,RL_myo,0.6624397645737296,0.6418701339958851,-0.05163770762271955,-0.38276603369039514,"(0.0, 0.0, 0.0, 0.0, 0.0, 0.0, 0.0, 0.0, 0.0)",1.4375,-4.5625,-3.875,"(0.0, 0.0, 0.0, 0.0, 0.0, 0.0, 0.0, 0.0, 0.0)",-0.54833984375,0.88916015625,0.146484375,"(0.0, 0.0, 0.0, 0.0, 0.0, 0.0, 0.0, 0.0, 0.0)"
2022/11/28/22:58:32.764850,2470,1669697912,764549493,RL_myo,0.6614020337870432,0.6418090056543706,-0.05072213825000304,-0.3847802160385309,"(0.0, 0.0, 0.0, 0.0, 0.0, 0.0, 0.0, 0.0, 0.0)",-0.9375,-7.375,-2.25,"(0.0, 0.0, 0.0, 0.0, 0.0, 0.0, 0.0, 0.0, 0.0)",-0.59716796875,0.86279296875,0.14013671875,"(0.0, 0.0, 0.0, 0.0, 0.0, 0.0, 0.0, 0.0, 0.0)"
2022/11/28/22:58:32.784000,2471,1669697912,783433675,RL_myo,0.6602411214717072,0.6414416146386402,-0.050050635075048526,-0.38746516031269274,"(0.0, 0.0, 0.0, 0.0, 0.0, 0.0, 0.0, 0.0, 0.0)",-1.875,-12.9375,0.5625,"(0.0, 0.0, 0.0, 0.0, 0.0, 0.0, 0.0, 0.0, 0.0)",-0.6474609375,0.81982421875,0.11279296875,"(0.0, 0.0, 0.0, 0.0, 0.0, 0.0, 0.0, 0.0, 0.0)"
2022/11/28/22:58:32.802476,2472,1669697912,802176952,RL_myo,0.6580059167056002,0.6416473280528078,-0.04968616105736164,-0.39095806089975593,"(0.0, 0.0, 0.0, 0.0, 0.0, 0.0, 0.0, 0.0, 0.0)",2.625,-17.9375,1.875,"(0.0, 0.0, 0.0, 0.0, 0.0, 0.0, 0.0, 0.0, 0.0)",-0.75048828125,0.81787109375,0.08984375,"(0.0, 0.0, 0.0, 0.0, 0.0, 0.0, 0.0, 0.0, 0.0)"
2022/11/28/22:58:32.825844,2473,1669697912,825444698,RL_myo,0.6545509094759356,0.642404729786854,-0.05139237838294832,-0.39526964656528896,"(0.0, 0.0, 0.0, 0.0, 0.0, 0.0, 0.0, 0.0, 0.0)",13.625,-29.0625,8.5625,"(0.0, 0.0, 0.0, 0.0, 0.0, 0.0, 0.0, 0.0, 0.0)",-0.8388671875,0.828125,0.0888671875,"(0.0, 0.0, 0.0, 0.0, 0.0, 0.0, 0.0, 0.0, 0.0)"
2022/11/28/22:58:32.843932,2474,1669697912,843441724,RL_myo,0.6510846576006121,0.6425394385077007,-0.05700881880556592,-0.3999772908274877,"(0.0, 0.0, 0.0, 0.0, 0.0, 0.0, 0.0, 0.0, 0.0)",21.8125,-45.625,21.6875,"(0.0, 0.0, 0.0, 0.0, 0.0, 0.0, 0.0, 0.0, 0.0)",-0.82763671875,0.80224609375,0.11376953125,"(0.0, 0.0, 0.0, 0.0, 0.0, 0.0, 0.0, 0.0, 0.0)"
2022/11/28/22:58:32.862360,2475,1669697912,861947298,RL_myo,0.6486448918563614,0.6413203988646645,-0.06708014831562446,-0.40431201314167103,"(0.0, 0.0, 0.0, 0.0, 0.0, 0.0, 0.0, 0.0, 0.0)",25.375,-61.6875,37.8125,"(0.0, 0.0, 0.0, 0.0, 0.0, 0.0, 0.0, 0.0, 0.0)",-0.74560546875,0.79443359375,0.13818359375,"(0.0, 0.0, 0.0, 0.0, 0.0, 0.0, 0.0, 0.0, 0.0)"
2022/11/28/22:58:32.884748,2476,1669697912,884377956,RL_myo,0.6470430788679068,0.6391083934370202,-0.08148311577102683,-0.40772075906401445,"(0.0, 0.0, 0.0, 0.0, 0.0, 0.0, 0.0, 0.0, 0.0)",30.25,-74.875,56.4375,"(0.0, 0.0, 0.0, 0.0, 0.0, 0.0, 0.0, 0.0, 0.0)",-0.6728515625,0.79931640625,0.1650390625,"(0.0, 0.0, 0.0, 0.0, 0.0, 0.0, 0.0, 0.0, 0.0)"
2022/11/28/22:58:32.903865,2477,1669697912,903378486,RL_myo,0.646360796151436,0.6354965636948774,-0.09967017753685506,-0.41039943279719127,"(0.0, 0.0, 0.0, 0.0, 0.0, 0.0, 0.0, 0.0, 0.0)",32.625,-88.6875,74.8125,"(0.0, 0.0, 0.0, 0.0, 0.0, 0.0, 0.0, 0.0, 0.0)",-0.619140625,0.77978515625,0.18896484375,"(0.0, 0.0, 0.0, 0.0, 0.0, 0.0, 0.0, 0.0, 0.0)"
2022/11/28/22:58:32.922016,2478,1669697912,921629190,RL_myo,0.6479522384335812,0.6295805707839478,-0.12310848388475257,-0.4106464450057587,"(0.0, 0.0, 0.0, 0.0, 0.0, 0.0, 0.0, 0.0, 0.0)",28.3125,-101.125,94.9375,"(0.0, 0.0, 0.0, 0.0, 0.0, 0.0, 0.0, 0.0, 0.0)",-0.50927734375,0.734375,0.21240234375,"(0.0, 0.0, 0.0, 0.0, 0.0, 0.0, 0.0, 0.0, 0.0)"
2022/11/28/22:58:32.944585,2479,1669697912,944212675,RL_myo,0.6503470737216792,0.6219039262459117,-0.15082192577815762,-0.4093127617435552,"(0.0, 0.0, 0.0, 0.0, 0.0, 0.0, 0.0, 0.0, 0.0)",30.25,-114.375,118.1875,"(0.0, 0.0, 0.0, 0.0, 0.0, 0.0, 0.0, 0.0, 0.0)",-0.3740234375,0.7392578125,0.232421875,"(0.0, 0.0, 0.0, 0.0, 0.0, 0.0, 0.0, 0.0, 0.0)"
2022/11/28/22:58:32.963591,2480,1669697912,963262796,RL_myo,0.6527773309245639,0.6122495938760449,-0.18274103120973767,-0.40698637144506705,"(0.0, 0.0, 0.0, 0.0, 0.0, 0.0, 0.0, 0.0, 0.0)",33.6875,-130.75,136.0625,"(0.0, 0.0, 0.0, 0.0, 0.0, 0.0, 0.0, 0.0, 0.0)",-0.20751953125,0.80322265625,0.2333984375,"(0.0, 0.0, 0.0, 0.0, 0.0, 0.0, 0.0, 0.0, 0.0)"
2022/11/28/22:58:32.982293,2481,1669697912,981843948,RL_myo,0.6554724028138882,0.6001732132292543,-0.2176566336189892,-0.4034521447620636,"(0.0, 0.0, 0.0, 0.0, 0.0, 0.0, 0.0, 0.0, 0.0)",32.1875,-142.625,152.25,"(0.0, 0.0, 0.0, 0.0, 0.0, 0.0, 0.0, 0.0, 0.0)",-0.00634765625,0.80419921875,0.2587890625,"(0.0, 0.0, 0.0, 0.0, 0.0, 0.0, 0.0, 0.0, 0.0)"
2022/11/28/22:58:33.004679,2482,1669697913,4243850,RL_myo,0.6592669774007902,0.5850452715847213,-0.2527566478489651,-0.3990027063483905,"(0.0, 0.0, 0.0, 0.0, 0.0, 0.0, 0.0, 0.0, 0.0)",19.0,-145.875,160.8125,"(0.0, 0.0, 0.0, 0.0, 0.0, 0.0, 0.0, 0.0, 0.0)",0.1572265625,0.771484375,0.2861328125,"(0.0, 0.0, 0.0, 0.0, 0.0, 0.0, 0.0, 0.0, 0.0)"
2022/11/28/22:58:33.023906,2483,1669697913,23466348,RL_myo,0.6634490083531649,0.5673801271068096,-0.2858873187788615,-0.3952007662453305,"(0.0, 0.0, 0.0, 0.0, 0.0, 0.0, 0.0, 0.0, 0.0)",2.9375,-145.25,153.5,"(0.0, 0.0, 0.0, 0.0, 0.0, 0.0, 0.0, 0.0, 0.0)",0.376953125,0.7041015625,0.26953125,"(0.0, 0.0, 0.0, 0.0, 0.0, 0.0, 0.0, 0.0, 0.0)"
2022/11/28/22:58:33.041747,2484,1669697913,41401624,RL_myo,0.6647562267880456,0.5514711696841421,-0.31629480922005804,-0.3923471697542518,"(0.0, 0.0, 0.0, 0.0, 0.0, 0.0, 0.0, 0.0, 0.0)",10.1875,-138.5625,131.125,"(0.0, 0.0, 0.0, 0.0, 0.0, 0.0, 0.0, 0.0, 0.0)",0.44384765625,0.68701171875,0.208984375,"(0.0, 0.0, 0.0, 0.0, 0.0, 0.0, 0.0, 0.0, 0.0)"
2022/11/28/22:58:33.065022,2485,1669697913,64762830,RL_myo,0.6634057884929451,0.5381588772787098,-0.3449172978906645,-0.38898565554011766,"(0.0, 0.0, 0.0, 0.0, 0.0, 0.0, 0.0, 0.0, 0.0)",23.75,-129.6875,117.625,"(0.0, 0.0, 0.0, 0.0, 0.0, 0.0, 0.0, 0.0, 0.0)",0.4287109375,0.75537109375,0.11962890625,"(0.0, 0.0, 0.0, 0.0, 0.0, 0.0, 0.0, 0.0, 0.0)"
2022/11/28/22:58:33.084328,2486,1669697913,83631038,RL_myo,0.6623505127476649,0.5248999640278215,-0.3704206839168428,-0.38543526428322006,"(0.0, 0.0, 0.0, 0.0, 0.0, 0.0, 0.0, 0.0, 0.0)",15.0,-116.375,109.5,"(0.0, 0.0, 0.0, 0.0, 0.0, 0.0, 0.0, 0.0, 0.0)",0.4404296875,0.8330078125,0.0361328125,"(0.0, 0.0, 0.0, 0.0, 0.0, 0.0, 0.0, 0.0, 0.0)"
2022/11/28/22:58:33.101762,2487,1669697913,101509094,RL_myo,0.6632064488426694,0.5104358118600446,-0.39355376239071715,-0.3804312346435081,"(0.0, 0.0, 0.0, 0.0, 0.0, 0.0, 0.0, 0.0, 0.0)",-7.5,-97.25,96.4375,"(0.0, 0.0, 0.0, 0.0, 0.0, 0.0, 0.0, 0.0, 0.0)",0.47998046875,0.89794921875,-0.01904296875,"(0.0, 0.0, 0.0, 0.0, 0.0, 0.0, 0.0, 0.0, 0.0)"
2022/11/28/22:58:33.129000,2488,1669697913,128459692,RL_myo,0.6654084079374135,0.4967674768118335,-0.4107075011017112,-0.37652765259272647,"(0.0, 0.0, 0.0, 0.0, 0.0, 0.0, 0.0, 0.0, 0.0)",-26.875,-73.0,80.4375,"(0.0, 0.0, 0.0, 0.0, 0.0, 0.0, 0.0, 0.0, 0.0)",0.455078125,0.92333984375,-0.05322265625,"(0.0, 0.0, 0.0, 0.0, 0.0, 0.0, 0.0, 0.0, 0.0)"
2022/11/28/22:58:33.143694,2489,1669697913,143313407,RL_myo,0.6671622809243953,0.48613553815413124,-0.4239419269326548,-0.37261236163602907,"(0.0, 0.0, 0.0, 0.0, 0.0, 0.0, 0.0, 0.0, 0.0)",-20.25,-52.9375,66.4375,"(0.0, 0.0, 0.0, 0.0, 0.0, 0.0, 0.0, 0.0, 0.0)",0.4072265625,0.88037109375,-0.03369140625,"(0.0, 0.0, 0.0, 0.0, 0.0, 0.0, 0.0, 0.0, 0.0)"
2022/11/28/22:58:33.162553,2490,1669697913,162180662,RL_myo,0.667062378705301,0.48059741695722763,-0.434637313455984,-0.36761979201592354,"(0.0, 0.0, 0.0, 0.0, 0.0, 0.0, 0.0, 0.0, 0.0)",3.375,-34.625,50.375,"(0.0, 0.0, 0.0, 0.0, 0.0, 0.0, 0.0, 0.0, 0.0)",0.384765625,0.90478515625,-0.0078125,"(0.0, 0.0, 0.0, 0.0, 0.0, 0.0, 0.0, 0.0, 0.0)"
2022/11/28/22:58:33.185836,2491,1669697913,185529232,RL_myo,0.6661554254992864,0.4788335452668043,-0.44221147679515577,-0.36249744108853416,"(0.0, 0.0, 0.0, 0.0, 0.0, 0.0, 0.0, 0.0, 0.0)",15.25,-17.5625,36.625,"(0.0, 0.0, 0.0, 0.0, 0.0, 0.0, 0.0, 0.0, 0.0)",0.3408203125,0.98583984375,0.02001953125,"(0.0, 0.0, 0.0, 0.0, 0.0, 0.0, 0.0, 0.0, 0.0)"
2022/11/28/22:58:33.205240,2492,1669697913,204944849,RL_myo,0.6657324686775903,0.4785314526847261,-0.4467310844642232,-0.35810510623740915,"(0.0, 0.0, 0.0, 0.0, 0.0, 0.0, 0.0, 0.0, 0.0)",13.3125,-4.375,24.9375,"(0.0, 0.0, 0.0, 0.0, 0.0, 0.0, 0.0, 0.0, 0.0)",0.33642578125,1.04931640625,0.04833984375,"(0.0, 0.0, 0.0, 0.0, 0.0, 0.0, 0.0, 0.0, 0.0)"
2022/11/28/22:58:33.222223,2493,1669697913,221835851,RL_myo,0.6657748264589547,0.47912838171092725,-0.4488547922423133,-0.3545550024660862,"(0.0, 0.0, 0.0, 0.0, 0.0, 0.0, 0.0, 0.0, 0.0)",12.0,3.8125,17.875,"(0.0, 0.0, 0.0, 0.0, 0.0, 0.0, 0.0, 0.0, 0.0)",0.2822265625,1.048828125,0.09716796875,"(0.0, 0.0, 0.0, 0.0, 0.0, 0.0, 0.0, 0.0, 0.0)"
2022/11/28/22:58:33.245198,2494,1669697913,244930267,RL_myo,0.6660476620540648,0.4799425189452998,-0.4497286633077667,-0.35182356342371973,"(0.0, 0.0, 0.0, 0.0, 0.0, 0.0, 0.0, 0.0, 0.0)",10.75,6.625,11.3125,"(0.0, 0.0, 0.0, 0.0, 0.0, 0.0, 0.0, 0.0, 0.0)",0.28076171875,1.02685546875,0.13916015625,"(0.0, 0.0, 0.0, 0.0, 0.0, 0.0, 0.0, 0.0, 0.0)"
2022/11/28/22:58:33.266228,2495,1669697913,265792369,RL_myo,0.6654820251208406,0.48145668294535365,-0.4505721644906948,-0.34973970503002993,"(0.0, 0.0, 0.0, 0.0, 0.0, 0.0, 0.0, 0.0, 0.0)",11.0625,4.375,7.4375,"(0.0, 0.0, 0.0, 0.0, 0.0, 0.0, 0.0, 0.0, 0.0)",0.271484375,1.1083984375,0.10693359375,"(0.0, 0.0, 0.0, 0.0, 0.0, 0.0, 0.0, 0.0, 0.0)"
2022/11/28/22:58:33.282435,2496,1669697913,282059431,RL_myo,0.6650020355398216,0.48268344167498023,-0.45100505191406537,-0.3484012500102159,"(0.0, 0.0, 0.0, 0.0, 0.0, 0.0, 0.0, 0.0, 0.0)",8.625,3.8125,3.875,"(0.0, 0.0, 0.0, 0.0, 0.0, 0.0, 0.0, 0.0, 0.0)",0.29443359375,1.15771484375,0.12451171875,"(0.0, 0.0, 0.0, 0.0, 0.0, 0.0, 0.0, 0.0, 0.0)"
2022/11/28/22:58:33.304585,2497,1669697913,304302930,RL_myo,0.665839441249588,0.48260999742969046,-0.4497117062175236,-0.3485754009511777,"(0.0, 0.0, 0.0, 0.0, 0.0, 0.0, 0.0, 0.0, 0.0)",-8.9375,6.75,0.3125,"(0.0, 0.0, 0.0, 0.0, 0.0, 0.0, 0.0, 0.0, 0.0)",0.259765625,1.1064453125,0.10595703125,"(0.0, 0.0, 0.0, 0.0, 0.0, 0.0, 0.0, 0.0, 0.0)"
2022/11/28/22:58:33.325889,2498,1669697913,325477600,RL_myo,0.6671831495253481,0.48157305367807124,-0.44873575293297585,-0.34869795382291774,"(0.0, 0.0, 0.0, 0.0, 0.0, 0.0, 0.0, 0.0, 0.0)",-10.0625,4.75,2.1875,"(0.0, 0.0, 0.0, 0.0, 0.0, 0.0, 0.0, 0.0, 0.0)",0.27001953125,0.98876953125,0.13232421875,"(0.0, 0.0, 0.0, 0.0, 0.0, 0.0, 0.0, 0.0, 0.0)"
2022/11/28/22:58:33.342493,2499,1669697913,342135667,RL_myo,0.6668235235681111,0.482310250181713,-0.44861811425406106,-0.34851829012118213,"(0.0, 0.0, 0.0, 0.0, 0.0, 0.0, 0.0, 0.0, 0.0)",4.875,1.0625,-0.5625,"(0.0, 0.0, 0.0, 0.0, 0.0, 0.0, 0.0, 0.0, 0.0)",0.24560546875,0.97705078125,0.14599609375,"(0.0, 0.0, 0.0, 0.0, 0.0, 0.0, 0.0, 0.0, 0.0)"
2022/11/28/22:58:33.365391,2500,1669697913,364929199,RL_myo,0.665789917927869,0.483655968982438,-0.4489870403627983,-0.34815417050426883,"(0.0, 0.0, 0.0, 0.0, 0.0, 0.0, 0.0, 0.0, 0.0)",11.3125,-1.0,-2.25,"(0.0, 0.0, 0.0, 0.0, 0.0, 0.0, 0.0, 0.0, 0.0)",0.2529296875,0.98095703125,0.16015625,"(0.0, 0.0, 0.0, 0.0, 0.0, 0.0, 0.0, 0.0, 0.0)"
2022/11/28/22:58:33.385719,2501,1669697913,385262250,RL_myo,0.6649369998907687,0.48469476006357576,-0.44898811925798554,-0.3483381180812022,"(0.0, 0.0, 0.0, 0.0, 0.0, 0.0, 0.0, 0.0, 0.0)",7.1875,-1.0,-4.0,"(0.0, 0.0, 0.0, 0.0, 0.0, 0.0, 0.0, 0.0, 0.0)",0.24951171875,0.9814453125,0.1513671875,"(0.0, 0.0, 0.0, 0.0, 0.0, 0.0, 0.0, 0.0, 0.0)"
2022/11/28/22:58:33.401688,2502,1669697913,401396989,RL_myo,0.6649235390185018,0.48474598374196265,-0.4486738512323303,-0.3486972809264458,"(0.0, 0.0, 0.0, 0.0, 0.0, 0.0, 0.0, 0.0, 0.0)",1.75,-0.8125,-2.6875,"(0.0, 0.0, 0.0, 0.0, 0.0, 0.0, 0.0, 0.0, 0.0)",0.255859375,0.93701171875,0.16796875,"(0.0, 0.0, 0.0, 0.0, 0.0, 0.0, 0.0, 0.0, 0.0)"
2022/11/28/22:58:33.425097,2503,1669697913,424795389,RL_myo,0.6654689438450633,0.4841327765366451,-0.4482439625422493,-0.3490614408740637,"(0.0, 0.0, 0.0, 0.0, 0.0, 0.0, 0.0, 0.0, 0.0)",-1.875,-0.25,-0.875,"(0.0, 0.0, 0.0, 0.0, 0.0, 0.0, 0.0, 0.0, 0.0)",0.26513671875,0.9248046875,0.18310546875,"(0.0, 0.0, 0.0, 0.0, 0.0, 0.0, 0.0, 0.0, 0.0)"
2022/11/28/22:58:33.445592,2504,1669697913,445272207,RL_myo,0.6659622372701133,0.4835870961315285,-0.4480031914180764,-0.3491861387061056,"(0.0, 0.0, 0.0, 0.0, 0.0, 0.0, 0.0, 0.0, 0.0)",-1.5,0.875,-1.9375,"(0.0, 0.0, 0.0, 0.0, 0.0, 0.0, 0.0, 0.0, 0.0)",0.2890625,0.89208984375,0.16162109375,"(0.0, 0.0, 0.0, 0.0, 0.0, 0.0, 0.0, 0.0, 0.0)"
2022/11/28/22:58:33.462068,2505,1669697913,461818218,RL_myo,0.6663873247371721,0.4837075974118052,-0.4475744872959959,-0.34875775540833504,"(0.0, 0.0, 0.0, 0.0, 0.0, 0.0, 0.0, 0.0, 0.0)",1.625,3.5625,-2.0625,"(0.0, 0.0, 0.0, 0.0, 0.0, 0.0, 0.0, 0.0, 0.0)",0.2880859375,0.90283203125,0.154296875,"(0.0, 0.0, 0.0, 0.0, 0.0, 0.0, 0.0, 0.0, 0.0)"
2022/11/28/22:58:33.485082,2506,1669697913,484723091,RL_myo,0.6668559249216344,0.48405952229118454,-0.44664576776281534,-0.34856435907262073,"(0.0, 0.0, 0.0, 0.0, 0.0, 0.0, 0.0, 0.0, 0.0)",0.6875,5.4375,-0.9375,"(0.0, 0.0, 0.0, 0.0, 0.0, 0.0, 0.0, 0.0, 0.0)",0.2421875,0.9365234375,0.16162109375,"(0.0, 0.0, 0.0, 0.0, 0.0, 0.0, 0.0, 0.0, 0.0)"
2022/11/28/22:58:33.505402,2507,1669697913,505116462,RL_myo,0.667432458620707,0.48420134378034463,-0.4458094812771508,-0.3483344345083105,"(0.0, 0.0, 0.0, 0.0, 0.0, 0.0, 0.0, 0.0, 0.0)",-0.4375,5.1875,-1.375,"(0.0, 0.0, 0.0, 0.0, 0.0, 0.0, 0.0, 0.0, 0.0)",0.25146484375,0.91650390625,0.15283203125,"(0.0, 0.0, 0.0, 0.0, 0.0, 0.0, 0.0, 0.0, 0.0)"
2022/11/28/22:58:33.521945,2508,1669697913,521574258,RL_myo,0.667742834555513,0.4844492575746898,-0.4452636177406277,-0.34809299684370115,"(0.0, 0.0, 0.0, 0.0, 0.0, 0.0, 0.0, 0.0, 0.0)",0.25,4.0,-1.1875,"(0.0, 0.0, 0.0, 0.0, 0.0, 0.0, 0.0, 0.0, 0.0)",0.2587890625,0.9169921875,0.134765625,"(0.0, 0.0, 0.0, 0.0, 0.0, 0.0, 0.0, 0.0, 0.0)"
2022/11/28/22:58:33.544917,2509,1669697913,544523954,RL_myo,0.6681946560995069,0.48442281562493483,-0.4446289796935429,-0.3480739974182945,"(0.0, 0.0, 0.0, 0.0, 0.0, 0.0, 0.0, 0.0, 0.0)",-2.6875,3.625,-1.125,"(0.0, 0.0, 0.0, 0.0, 0.0, 0.0, 0.0, 0.0, 0.0)",0.2587890625,0.94384765625,0.1357421875,"(0.0, 0.0, 0.0, 0.0, 0.0, 0.0, 0.0, 0.0, 0.0)"
2022/11/28/22:58:33.565591,2510,1669697913,565278768,RL_myo,0.6690046953053577,0.48425173365137375,-0.4435413849816654,-0.34814367138233376,"(0.0, 0.0, 0.0, 0.0, 0.0, 0.0, 0.0, 0.0, 0.0)",-4.1875,5.125,-0.125,"(0.0, 0.0, 0.0, 0.0, 0.0, 0.0, 0.0, 0.0, 0.0)",0.2294921875,0.916015625,0.14599609375,"(0.0, 0.0, 0.0, 0.0, 0.0, 0.0, 0.0, 0.0, 0.0)"
2022/11/28/22:58:33.582612,2511,1669697913,582185029,RL_myo,0.6693267036496882,0.4845080588702558,-0.44324735745978805,-0.34754206188047826,"(0.0, 0.0, 0.0, 0.0, 0.0, 0.0, 0.0, 0.0, 0.0)",2.9375,3.8125,-1.0625,"(0.0, 0.0, 0.0, 0.0, 0.0, 0.0, 0.0, 0.0, 0.0)",0.26953125,0.86962890625,0.15771484375,"(0.0, 0.0, 0.0, 0.0, 0.0, 0.0, 0.0, 0.0, 0.0)"
2022/11/28/22:58:33.604610,2512,1669697913,604174613,RL_myo,0.6690824677524805,0.48560665147224363,-0.44336937107772467,-0.34632128462211037,"(0.0, 0.0, 0.0, 0.0, 0.0, 0.0, 0.0, 0.0, 0.0)",10.75,4.3125,-1.1875,"(0.0, 0.0, 0.0, 0.0, 0.0, 0.0, 0.0, 0.0, 0.0)",0.27880859375,0.88623046875,0.16064453125,"(0.0, 0.0, 0.0, 0.0, 0.0, 0.0, 0.0, 0.0, 0.0)"
2022/11/28/22:58:33.627692,2513,1669697913,627260684,RL_myo,0.6687116322744849,0.48700712978442096,-0.4430611298540057,-0.3454643883418752,"(0.0, 0.0, 0.0, 0.0, 0.0, 0.0, 0.0, 0.0, 0.0)",10.0,4.5,0.125,"(0.0, 0.0, 0.0, 0.0, 0.0, 0.0, 0.0, 0.0, 0.0)",0.228515625,0.96533203125,0.1689453125,"(0.0, 0.0, 0.0, 0.0, 0.0, 0.0, 0.0, 0.0, 0.0)"
2022/11/28/22:58:33.648156,2514,1669697913,647168397,RL_myo,0.6688994192083407,0.48762090154716986,-0.4425759365525759,-0.34485643932175614,"(0.0, 0.0, 0.0, 0.0, 0.0, 0.0, 0.0, 0.0, 0.0)",3.9375,4.6875,0.9375,"(0.0, 0.0, 0.0, 0.0, 0.0, 0.0, 0.0, 0.0, 0.0)",0.24169921875,0.9658203125,0.15478515625,"(0.0, 0.0, 0.0, 0.0, 0.0, 0.0, 0.0, 0.0, 0.0)"
2022/11/28/22:58:33.664200,2515,1669697913,663805484,RL_myo,0.6690895457127245,0.4878091269235627,-0.44245850363725053,-0.344371758521364,"(0.0, 0.0, 0.0, 0.0, 0.0, 0.0, 0.0, 0.0, 0.0)",2.875,2.5,0.3125,"(0.0, 0.0, 0.0, 0.0, 0.0, 0.0, 0.0, 0.0, 0.0)",0.2626953125,0.921875,0.1474609375,"(0.0, 0.0, 0.0, 0.0, 0.0, 0.0, 0.0, 0.0, 0.0)"
2022/11/28/22:58:33.686552,2516,1669697913,686184406,RL_myo,0.6686344787597936,0.4887043606964553,-0.4429283808635164,-0.3433808833868187,"(0.0, 0.0, 0.0, 0.0, 0.0, 0.0, 0.0, 0.0, 0.0)",8.6875,1.25,1.3125,"(0.0, 0.0, 0.0, 0.0, 0.0, 0.0, 0.0, 0.0, 0.0)",0.25830078125,0.93505859375,0.13720703125,"(0.0, 0.0, 0.0, 0.0, 0.0, 0.0, 0.0, 0.0, 0.0)"
2022/11/28/22:58:33.707036,2517,1669697913,706561565,RL_myo,0.667288256459511,0.4901056159672435,-0.4440247018881316,-0.3425856565908017,"(0.0, 0.0, 0.0, 0.0, 0.0, 0.0, 0.0, 0.0, 0.0)",12.0625,-2.1875,0.5,"(0.0, 0.0, 0.0, 0.0, 0.0, 0.0, 0.0, 0.0, 0.0)",0.2548828125,0.9892578125,0.10888671875,"(0.0, 0.0, 0.0, 0.0, 0.0, 0.0, 0.0, 0.0, 0.0)"
2022/11/28/22:58:33.724035,2518,1669697913,723364114,RL_myo,0.6661323141228831,0.4909628307499058,-0.4451868333527863,-0.34209928721447314,"(0.0, 0.0, 0.0, 0.0, 0.0, 0.0, 0.0, 0.0, 0.0)",5.5625,-3.1875,-1.1875,"(0.0, 0.0, 0.0, 0.0, 0.0, 0.0, 0.0, 0.0, 0.0)",0.302734375,1.02783203125,0.0673828125,"(0.0, 0.0, 0.0, 0.0, 0.0, 0.0, 0.0, 0.0, 0.0)"
2022/11/28/22:58:33.746858,2519,1669697913,746350288,RL_myo,0.6654182269304596,0.49146464531682815,-0.4461146414084323,-0.34155938340697595,"(0.0, 0.0, 0.0, 0.0, 0.0, 0.0, 0.0, 0.0, 0.0)",-0.6875,-0.1875,-3.25,"(0.0, 0.0, 0.0, 0.0, 0.0, 0.0, 0.0, 0.0, 0.0)",0.3544921875,1.02392578125,0.01220703125,"(0.0, 0.0, 0.0, 0.0, 0.0, 0.0, 0.0, 0.0, 0.0)"
2022/11/28/22:58:33.767506,2520,1669697913,766834259,RL_myo,0.6646614506564958,0.4926673305508939,-0.44615933923773965,-0.34124170529113573,"(0.0, 0.0, 0.0, 0.0, 0.0, 0.0, 0.0, 0.0, 0.0)",-6.375,5.625,-8.1875,"(0.0, 0.0, 0.0, 0.0, 0.0, 0.0, 0.0, 0.0, 0.0)",0.3466796875,1.02001953125,-0.083984375,"(0.0, 0.0, 0.0, 0.0, 0.0, 0.0, 0.0, 0.0, 0.0)"
2022/11/28/22:58:33.783805,2521,1669697913,783412456,RL_myo,0.6646204387981145,0.49365874818616495,-0.444646881866495,-0.3418623452758049,"(0.0, 0.0, 0.0, 0.0, 0.0, 0.0, 0.0, 0.0, 0.0)",-23.0625,12.9375,-20.75,"(0.0, 0.0, 0.0, 0.0, 0.0, 0.0, 0.0, 0.0, 0.0)",0.431640625,1.00244140625,-0.20703125,"(0.0, 0.0, 0.0, 0.0, 0.0, 0.0, 0.0, 0.0, 0.0)"
2022/11/28/22:58:33.806030,2522,1669697913,805717706,RL_myo,0.6651113417028696,0.49530866641449817,-0.44159682088834185,-0.3424740514173443,"(0.0, 0.0, 0.0, 0.0, 0.0, 0.0, 0.0, 0.0, 0.0)",-31.9375,24.4375,-32.4375,"(0.0, 0.0, 0.0, 0.0, 0.0, 0.0, 0.0, 0.0, 0.0)",0.50048828125,0.88134765625,-0.32373046875,"(0.0, 0.0, 0.0, 0.0, 0.0, 0.0, 0.0, 0.0, 0.0)"
2022/11/28/22:58:33.827571,2523,1669697913,826667785,RL_myo,0.6653555868436928,0.4982384786171053,-0.4362867383504923,-0.34454933379805947,"(0.0, 0.0, 0.0, 0.0, 0.0, 0.0, 0.0, 0.0, 0.0)",-41.4375,32.25,-49.6875,"(0.0, 0.0, 0.0, 0.0, 0.0, 0.0, 0.0, 0.0, 0.0)",0.48779296875,0.80224609375,-0.43505859375,"(0.0, 0.0, 0.0, 0.0, 0.0, 0.0, 0.0, 0.0, 0.0)"
2022/11/28/22:58:33.844569,2524,1669697913,843741416,RL_myo,0.6643681361247454,0.5031131415779767,-0.42913848094562107,-0.3483278780766121,"(0.0, 0.0, 0.0, 0.0, 0.0, 0.0, 0.0, 0.0, 0.0)",-40.375,35.4375,-70.3125,"(0.0, 0.0, 0.0, 0.0, 0.0, 0.0, 0.0, 0.0, 0.0)",0.5029296875,0.83154296875,-0.45556640625,"(0.0, 0.0, 0.0, 0.0, 0.0, 0.0, 0.0, 0.0, 0.0)"
2022/11/28/22:58:33.867547,2525,1669697913,866791248,RL_myo,0.6601712151891609,0.5117913867752509,-0.42133523469404377,-0.3531574196638762,"(0.0, 0.0, 0.0, 0.0, 0.0, 0.0, 0.0, 0.0, 0.0)",-17.4375,33.0625,-92.375,"(0.0, 0.0, 0.0, 0.0, 0.0, 0.0, 0.0, 0.0, 0.0)",0.48876953125,0.83740234375,-0.4072265625,"(0.0, 0.0, 0.0, 0.0, 0.0, 0.0, 0.0, 0.0, 0.0)"
2022/11/28/22:58:33.887589,2526,1669697913,886971235,RL_myo,0.6541068809091474,0.5217230211823637,-0.41082331019870033,-0.3621788029593058,"(0.0, 0.0, 0.0, 0.0, 0.0, 0.0, 0.0, 0.0, 0.0)",4.9375,20.4375,-106.25,"(0.0, 0.0, 0.0, 0.0, 0.0, 0.0, 0.0, 0.0, 0.0)",0.4404296875,0.8408203125,-0.33837890625,"(0.0, 0.0, 0.0, 0.0, 0.0, 0.0, 0.0, 0.0, 0.0)"
2022/11/28/22:58:33.903935,2527,1669697913,903409481,RL_myo,0.6477547791690386,0.5286162387998721,-0.40136016468629016,-0.3740168931261536,"(0.0, 0.0, 0.0, 0.0, 0.0, 0.0, 0.0, 0.0, 0.0)",-8.1875,0.9375,-107.9375,"(0.0, 0.0, 0.0, 0.0, 0.0, 0.0, 0.0, 0.0, 0.0)",0.4501953125,0.8984375,-0.21240234375,"(0.0, 0.0, 0.0, 0.0, 0.0, 0.0, 0.0, 0.0, 0.0)"
2022/11/28/22:58:33.926224,2528,1669697913,925778627,RL_myo,0.6406695732414381,0.5327621896565222,-0.3942769784833467,-0.3876243173912903,"(0.0, 0.0, 0.0, 0.0, 0.0, 0.0, 0.0, 0.0, 0.0)",-13.75,-21.0,-102.75,"(0.0, 0.0, 0.0, 0.0, 0.0, 0.0, 0.0, 0.0, 0.0)",0.44921875,0.927734375,-0.1337890625,"(0.0, 0.0, 0.0, 0.0, 0.0, 0.0, 0.0, 0.0, 0.0)"
2022/11/28/22:58:33.947351,2529,1669697913,946677446,RL_myo,0.6331685047669736,0.5327062569506599,-0.3915342161249408,-0.40252036716196177,"(0.0, 0.0, 0.0, 0.0, 0.0, 0.0, 0.0, 0.0, 0.0)",-25.25,-50.0,-95.0,"(0.0, 0.0, 0.0, 0.0, 0.0, 0.0, 0.0, 0.0, 0.0)",0.28173828125,0.888671875,-0.0068359375,"(0.0, 0.0, 0.0, 0.0, 0.0, 0.0, 0.0, 0.0, 0.0)"
2022/11/28/22:58:33.963936,2530,1669697913,963530302,RL_myo,0.6253033926000278,0.5273422461751333,-0.39178355071738197,-0.4212024121359484,"(0.0, 0.0, 0.0, 0.0, 0.0, 0.0, 0.0, 0.0, 0.0)",-37.25,-87.25,-78.875,"(0.0, 0.0, 0.0, 0.0, 0.0, 0.0, 0.0, 0.0, 0.0)",0.1171875,0.8017578125,0.10107421875,"(0.0, 0.0, 0.0, 0.0, 0.0, 0.0, 0.0, 0.0, 0.0)"
2022/11/28/22:58:33.987006,2531,1669697913,986627578,RL_myo,0.6174173654743285,0.5162234160915253,-0.39629210696172545,-0.4418843145545807,"(0.0, 0.0, 0.0, 0.0, 0.0, 0.0, 0.0, 0.0, 0.0)",-50.375,-122.8125,-57.1875,"(0.0, 0.0, 0.0, 0.0, 0.0, 0.0, 0.0, 0.0, 0.0)",0.17626953125,0.693359375,0.1865234375,"(0.0, 0.0, 0.0, 0.0, 0.0, 0.0, 0.0, 0.0, 0.0)"
2022/11/28/22:58:34.007035,2532,1669697914,6610631,RL_myo,0.6095631341752733,0.5000041248787263,-0.40509367392823564,-0.4629554793951585,"(0.0, 0.0, 0.0, 0.0, 0.0, 0.0, 0.0, 0.0, 0.0)",-56.8125,-152.125,-35.4375,"(0.0, 0.0, 0.0, 0.0, 0.0, 0.0, 0.0, 0.0, 0.0)",0.2470703125,0.61279296875,0.27197265625,"(0.0, 0.0, 0.0, 0.0, 0.0, 0.0, 0.0, 0.0, 0.0)"
2022/11/28/22:58:34.024071,2533,1669697914,23591279,RL_myo,0.6011905859240683,0.4792435005762217,-0.41796478501604256,-0.48394316302456214,"(0.0, 0.0, 0.0, 0.0, 0.0, 0.0, 0.0, 0.0, 0.0)",-58.25,-179.125,-13.5,"(0.0, 0.0, 0.0, 0.0, 0.0, 0.0, 0.0, 0.0, 0.0)",0.19921875,0.5283203125,0.38818359375,"(0.0, 0.0, 0.0, 0.0, 0.0, 0.0, 0.0, 0.0, 0.0)"
2022/11/28/22:58:34.046247,2534,1669697914,45855998,RL_myo,0.5906460909229763,0.45545118636635823,-0.43689621978161247,-0.5028151800168935,"(0.0, 0.0, 0.0, 0.0, 0.0, 0.0, 0.0, 0.0, 0.0)",-40.125,-208.25,12.5,"(0.0, 0.0, 0.0, 0.0, 0.0, 0.0, 0.0, 0.0, 0.0)",0.17138671875,0.49462890625,0.43359375,"(0.0, 0.0, 0.0, 0.0, 0.0, 0.0, 0.0, 0.0, 0.0)"
2022/11/28/22:58:34.067036,2535,1669697914,66585063,RL_myo,0.5772299239130465,0.43116762001921966,-0.4619914660143649,-0.517169202211615,"(0.0, 0.0, 0.0, 0.0, 0.0, 0.0, 0.0, 0.0, 0.0)",-4.5625,-226.375,37.1875,"(0.0, 0.0, 0.0, 0.0, 0.0, 0.0, 0.0, 0.0, 0.0)",0.173828125,0.5341796875,0.4736328125,"(0.0, 0.0, 0.0, 0.0, 0.0, 0.0, 0.0, 0.0, 0.0)"
2022/11/28/22:58:34.085007,2536,1669697914,84304094,RL_myo,0.5638454799229076,0.4042377802045266,-0.49041983450753,-0.5274073167367227,"(0.0, 0.0, 0.0, 0.0, 0.0, 0.0, 0.0, 0.0, 0.0)",9.375,-235.375,67.25,"(0.0, 0.0, 0.0, 0.0, 0.0, 0.0, 0.0, 0.0, 0.0)",0.15087890625,0.55615234375,0.60107421875,"(0.0, 0.0, 0.0, 0.0, 0.0, 0.0, 0.0, 0.0, 0.0)"
2022/11/28/22:58:34.106482,2537,1669697914,106132984,RL_myo,0.5527738451541371,0.37181166663122484,-0.5219522936687844,-0.5326940621072439,"(0.0, 0.0, 0.0, 0.0, 0.0, 0.0, 0.0, 0.0, 0.0)",12.125,-245.1875,112.8125,"(0.0, 0.0, 0.0, 0.0, 0.0, 0.0, 0.0, 0.0, 0.0)",0.1904296875,0.58984375,0.75830078125,"(0.0, 0.0, 0.0, 0.0, 0.0, 0.0, 0.0, 0.0, 0.0)"
2022/11/28/22:58:34.127621,2538,1669697914,126941442,RL_myo,0.5476120098850484,0.3330716382013719,-0.5543259333232289,-0.5309492726248368,"(0.0, 0.0, 0.0, 0.0, 0.0, 0.0, 0.0, 0.0, 0.0)",3.125,-235.0,173.5,"(0.0, 0.0, 0.0, 0.0, 0.0, 0.0, 0.0, 0.0, 0.0)",0.23486328125,0.53125,0.74169921875,"(0.0, 0.0, 0.0, 0.0, 0.0, 0.0, 0.0, 0.0, 0.0)"
2022/11/28/22:58:34.143762,2539,1669697914,143378019,RL_myo,0.5456448724098397,0.2918650760474109,-0.5878194369327927,-0.5211091633820147,"(0.0, 0.0, 0.0, 0.0, 0.0, 0.0, 0.0, 0.0, 0.0)",17.8125,-221.3125,218.4375,"(0.0, 0.0, 0.0, 0.0, 0.0, 0.0, 0.0, 0.0, 0.0)",0.279296875,0.3955078125,0.67529296875,"(0.0, 0.0, 0.0, 0.0, 0.0, 0.0, 0.0, 0.0, 0.0)"
2022/11/28/22:58:34.166958,2540,1669697914,166577816,RL_myo,0.5430664821903505,0.25145357458128165,-0.6254602505604306,-0.5006489495850129,"(0.0, 0.0, 0.0, 0.0, 0.0, 0.0, 0.0, 0.0, 0.0)",70.6875,-217.0625,248.625,"(0.0, 0.0, 0.0, 0.0, 0.0, 0.0, 0.0, 0.0, 0.0)",0.62744140625,0.3251953125,0.74267578125,"(0.0, 0.0, 0.0, 0.0, 0.0, 0.0, 0.0, 0.0, 0.0)"
2022/11/28/22:58:34.187270,2541,1669697914,186763525,RL_myo,0.5398475075082756,0.2148403873859955,-0.6643572774706139,-0.47014645000975097,"(0.0, 0.0, 0.0, 0.0, 0.0, 0.0, 0.0, 0.0, 0.0)",123.25,-199.4375,260.5625,"(0.0, 0.0, 0.0, 0.0, 0.0, 0.0, 0.0, 0.0, 0.0)",1.03466796875,0.271484375,0.73486328125,"(0.0, 0.0, 0.0, 0.0, 0.0, 0.0, 0.0, 0.0, 0.0)"
2022/11/28/22:58:34.205472,2542,1669697914,204723119,RL_myo,0.5387326856332234,0.18248677127487684,-0.7003463880866929,-0.43125469091246815,"(0.0, 0.0, 0.0, 0.0, 0.0, 0.0, 0.0, 0.0, 0.0)",155.875,-161.3125,272.5,"(0.0, 0.0, 0.0, 0.0, 0.0, 0.0, 0.0, 0.0, 0.0)",1.1767578125,0.31396484375,0.5986328125,"(0.0, 0.0, 0.0, 0.0, 0.0, 0.0, 0.0, 0.0, 0.0)"
2022/11/28/22:58:34.226049,2543,1669697914,225735187,RL_myo,0.5386853463152111,0.15691819911357444,-0.7332614718593867,-0.3840864360255635,"(0.0, 0.0, 0.0, 0.0, 0.0, 0.0, 0.0, 0.0, 0.0)",199.1875,-123.0,272.5625,"(0.0, 0.0, 0.0, 0.0, 0.0, 0.0, 0.0, 0.0, 0.0)",1.130859375,0.34130859375,0.458984375,"(0.0, 0.0, 0.0, 0.0, 0.0, 0.0, 0.0, 0.0, 0.0)"
2022/11/28/22:58:34.247936,2544,1669697914,247097253,RL_myo,0.537570029029426,0.13719998016100698,-0.7613134130464417,-0.3355540440058792,"(0.0, 0.0, 0.0, 0.0, 0.0, 0.0, 0.0, 0.0, 0.0)",211.75,-99.0625,247.0625,"(0.0, 0.0, 0.0, 0.0, 0.0, 0.0, 0.0, 0.0, 0.0)",1.1474609375,0.349609375,0.3515625,"(0.0, 0.0, 0.0, 0.0, 0.0, 0.0, 0.0, 0.0, 0.0)"
2022/11/28/22:58:34.263630,2545,1669697914,263236761,RL_myo,0.537267419557655,0.12127119875736232,-0.7824342063761374,-0.29057482500442977,"(0.0, 0.0, 0.0, 0.0, 0.0, 0.0, 0.0, 0.0, 0.0)",192.0,-69.125,217.0,"(0.0, 0.0, 0.0, 0.0, 0.0, 0.0, 0.0, 0.0, 0.0)",1.3115234375,0.4736328125,0.138671875,"(0.0, 0.0, 0.0, 0.0, 0.0, 0.0, 0.0, 0.0, 0.0)"
2022/11/28/22:58:34.286397,2546,1669697914,286000490,RL_myo,0.5396145885081176,0.1105352358090941,-0.7973673774765353,-0.24658329799488693,"(0.0, 0.0, 0.0, 0.0, 0.0, 0.0, 0.0, 0.0, 0.0)",190.4375,-28.25,194.9375,"(0.0, 0.0, 0.0, 0.0, 0.0, 0.0, 0.0, 0.0, 0.0)",1.248046875,0.59716796875,-0.04345703125,"(0.0, 0.0, 0.0, 0.0, 0.0, 0.0, 0.0, 0.0, 0.0)"
2022/11/28/22:58:34.307270,2547,1669697914,306775569,RL_myo,0.5443661686490099,0.10534544310889013,-0.8053494332687169,-0.20971433518084964,"(0.0, 0.0, 0.0, 0.0, 0.0, 0.0, 0.0, 0.0, 0.0)",164.9375,9.3125,155.5625,"(0.0, 0.0, 0.0, 0.0, 0.0, 0.0, 0.0, 0.0, 0.0)",1.091796875,1.00048828125,-0.16650390625,"(0.0, 0.0, 0.0, 0.0, 0.0, 0.0, 0.0, 0.0, 0.0)"
2022/11/28/22:58:34.324038,2548,1669697914,323347568,RL_myo,0.5545559546010299,0.09777664971063724,-0.8057723654680604,-0.18340751084922904,"(0.0, 0.0, 0.0, 0.0, 0.0, 0.0, 0.0, 0.0, 0.0)",97.5625,47.75,137.0,"(0.0, 0.0, 0.0, 0.0, 0.0, 0.0, 0.0, 0.0, 0.0)",1.15380859375,1.06884765625,-0.11474609375,"(0.0, 0.0, 0.0, 0.0, 0.0, 0.0, 0.0, 0.0, 0.0)"
2022/11/28/22:58:34.346697,2549,1669697914,346267938,RL_myo,0.5698321559178442,0.08709838115839372,-0.8003041161519681,-0.1649803253476792,"(0.0, 0.0, 0.0, 0.0, 0.0, 0.0, 0.0, 0.0, 0.0)",40.25,84.375,127.0,"(0.0, 0.0, 0.0, 0.0, 0.0, 0.0, 0.0, 0.0, 0.0)",1.23291015625,0.8955078125,-0.2333984375,"(0.0, 0.0, 0.0, 0.0, 0.0, 0.0, 0.0, 0.0, 0.0)"
2022/11/28/22:58:34.367182,2550,1669697914,366771221,RL_myo,0.5878842509246003,0.07836829092474945,-0.7913732555531943,-0.14825278711543335,"(0.0, 0.0, 0.0, 0.0, 0.0, 0.0, 0.0, 0.0, 0.0)",32.625,111.9375,113.375,"(0.0, 0.0, 0.0, 0.0, 0.0, 0.0, 0.0, 0.0, 0.0)",1.228515625,0.84716796875,-0.34716796875,"(0.0, 0.0, 0.0, 0.0, 0.0, 0.0, 0.0, 0.0, 0.0)"
2022/11/28/22:58:34.383006,2551,1669697914,382690906,RL_myo,0.6047397423001623,0.08233689063008871,-0.7822309787362616,-0.12500070571565727,"(0.0, 0.0, 0.0, 0.0, 0.0, 0.0, 0.0, 0.0, 0.0)",105.125,123.6875,80.5,"(0.0, 0.0, 0.0, 0.0, 0.0, 0.0, 0.0, 0.0, 0.0)",1.05224609375,0.92822265625,-0.45703125,"(0.0, 0.0, 0.0, 0.0, 0.0, 0.0, 0.0, 0.0, 0.0)"
2022/11/28/22:58:34.406515,2552,1669697914,406100273,RL_myo,0.6169910497542641,0.091123517388774,-0.7749466177396273,-0.10235374324244742,"(0.0, 0.0, 0.0, 0.0, 0.0, 0.0, 0.0, 0.0, 0.0)",123.3125,98.6875,56.0,"(0.0, 0.0, 0.0, 0.0, 0.0, 0.0, 0.0, 0.0, 0.0)",0.89599609375,0.97900390625,-0.32177734375,"(0.0, 0.0, 0.0, 0.0, 0.0, 0.0, 0.0, 0.0, 0.0)"
2022/11/28/22:58:34.427286,2553,1669697914,426634073,RL_myo,0.6254784005872593,0.10143882726151689,-0.7684204784732236,-0.08953715980303566,"(0.0, 0.0, 0.0, 0.0, 0.0, 0.0, 0.0, 0.0, 0.0)",92.375,79.25,41.5625,"(0.0, 0.0, 0.0, 0.0, 0.0, 0.0, 0.0, 0.0, 0.0)",1.0625,0.904296875,-0.31982421875,"(0.0, 0.0, 0.0, 0.0, 0.0, 0.0, 0.0, 0.0, 0.0)"
2022/11/28/22:58:34.443376,2554,1669697914,442969799,RL_myo,0.6341665554393989,0.10516544514168281,-0.7613660839798906,-0.08423001410070939,"(0.0, 0.0, 0.0, 0.0, 0.0, 0.0, 0.0, 0.0, 0.0)",30.625,83.0625,34.1875,"(0.0, 0.0, 0.0, 0.0, 0.0, 0.0, 0.0, 0.0, 0.0)",1.14404296875,0.779296875,-0.4384765625,"(0.0, 0.0, 0.0, 0.0, 0.0, 0.0, 0.0, 0.0, 0.0)"
2022/11/28/22:58:34.466800,2555,1669697914,466198921,RL_myo,0.6445329391565802,0.10473660261294428,-0.7529926960582131,-0.08129904118906864,"(0.0, 0.0, 0.0, 0.0, 0.0, 0.0, 0.0, 0.0, 0.0)",-1.0,94.125,28.375,"(0.0, 0.0, 0.0, 0.0, 0.0, 0.0, 0.0, 0.0, 0.0)",1.01708984375,0.51220703125,-0.4189453125,"(0.0, 0.0, 0.0, 0.0, 0.0, 0.0, 0.0, 0.0, 0.0)"
2022/11/28/22:58:34.487007,2556,1669697914,486610412,RL_myo,0.6478344103122733,0.11590706097446833,-0.7494590846263806,-0.07202229170609407,"(0.0, 0.0, 0.0, 0.0, 0.0, 0.0, 0.0, 0.0, 0.0)",71.1875,64.6875,-9.3125,"(0.0, 0.0, 0.0, 0.0, 0.0, 0.0, 0.0, 0.0, 0.0)",0.88525390625,0.3115234375,-0.537109375,"(0.0, 0.0, 0.0, 0.0, 0.0, 0.0, 0.0, 0.0, 0.0)"
2022/11/28/22:58:34.503387,2557,1669697914,502807617,RL_myo,0.6476924277162709,0.129819241778412,-0.7483984685880997,-0.059508115060626095,"(0.0, 0.0, 0.0, 0.0, 0.0, 0.0, 0.0, 0.0, 0.0)",98.9375,38.9375,-15.125,"(0.0, 0.0, 0.0, 0.0, 0.0, 0.0, 0.0, 0.0, 0.0)",0.998046875,0.24755859375,-0.482421875,"(0.0, 0.0, 0.0, 0.0, 0.0, 0.0, 0.0, 0.0, 0.0)"
2022/11/28/22:58:34.526427,2558,1669697914,526073932,RL_myo,0.6473290898800864,0.14422389585014558,-0.7468148919265262,-0.04931566138252968,"(0.0, 0.0, 0.0, 0.0, 0.0, 0.0, 0.0, 0.0, 0.0)",93.375,34.5625,-17.5,"(0.0, 0.0, 0.0, 0.0, 0.0, 0.0, 0.0, 0.0, 0.0)",0.9716796875,0.37548828125,-0.42529296875,"(0.0, 0.0, 0.0, 0.0, 0.0, 0.0, 0.0, 0.0, 0.0)"
2022/11/28/22:58:34.549653,2559,1669697914,549166679,RL_myo,0.6480047741360301,0.1547228126998998,-0.7445615748031864,-0.04217493632174783,"(0.0, 0.0, 0.0, 0.0, 0.0, 0.0, 0.0, 0.0, 0.0)",66.5,30.6875,-13.5,"(0.0, 0.0, 0.0, 0.0, 0.0, 0.0, 0.0, 0.0, 0.0)",0.9091796875,0.345703125,-0.31005859375,"(0.0, 0.0, 0.0, 0.0, 0.0, 0.0, 0.0, 0.0, 0.0)"
2022/11/28/22:58:34.562943,2560,1669697914,562589883,RL_myo,0.6489297035769599,0.1593637562113847,-0.7428633768091778,-0.04058862423614356,"(0.0, 0.0, 0.0, 0.0, 0.0, 0.0, 0.0, 0.0, 0.0)",22.25,17.875,-10.0625,"(0.0, 0.0, 0.0, 0.0, 0.0, 0.0, 0.0, 0.0, 0.0)",0.94921875,0.3466796875,-0.22998046875,"(0.0, 0.0, 0.0, 0.0, 0.0, 0.0, 0.0, 0.0, 0.0)"
2022/11/28/22:58:34.586020,2561,1669697914,585706233,RL_myo,0.6496008426758261,0.15747159392122817,-0.742374804986007,-0.04583766164141176,"(0.0, 0.0, 0.0, 0.0, 0.0, 0.0, 0.0, 0.0, 0.0)",-30.9375,5.4375,-5.6875,"(0.0, 0.0, 0.0, 0.0, 0.0, 0.0, 0.0, 0.0, 0.0)",0.94091796875,0.35986328125,-0.24267578125,"(0.0, 0.0, 0.0, 0.0, 0.0, 0.0, 0.0, 0.0, 0.0)"
2022/11/28/22:58:34.609091,2562,1669697914,608604907,RL_myo,0.6496520402615007,0.15081644038765205,-0.7431570126103,-0.054076635444540555,"(0.0, 0.0, 0.0, 0.0, 0.0, 0.0, 0.0, 0.0, 0.0)",-61.8125,-4.1875,-1.4375,"(0.0, 0.0, 0.0, 0.0, 0.0, 0.0, 0.0, 0.0, 0.0)",0.89501953125,0.26611328125,-0.25537109375,"(0.0, 0.0, 0.0, 0.0, 0.0, 0.0, 0.0, 0.0, 0.0)"
2022/11/28/22:58:34.623241,2563,1669697914,622773647,RL_myo,0.649661038367328,0.14172425132365046,-0.744204908005715,-0.06335476867956469,"(0.0, 0.0, 0.0, 0.0, 0.0, 0.0, 0.0, 0.0, 0.0)",-75.8125,-7.8125,1.75,"(0.0, 0.0, 0.0, 0.0, 0.0, 0.0, 0.0, 0.0, 0.0)",0.8994140625,0.21435546875,-0.2470703125,"(0.0, 0.0, 0.0, 0.0, 0.0, 0.0, 0.0, 0.0, 0.0)"
2022/11/28/22:58:34.646363,2564,1669697914,646013021,RL_myo,0.6476976453470132,0.1332382170931521,-0.7463293259803315,-0.07568272523843729,"(0.0, 0.0, 0.0, 0.0, 0.0, 0.0, 0.0, 0.0, 0.0)",-84.375,-19.375,-7.125,"(0.0, 0.0, 0.0, 0.0, 0.0, 0.0, 0.0, 0.0, 0.0)",0.9267578125,0.30517578125,-0.29150390625,"(0.0, 0.0, 0.0, 0.0, 0.0, 0.0, 0.0, 0.0, 0.0)"
2022/11/28/22:58:34.669465,2565,1669697914,669040918,RL_myo,0.6457341198481809,0.12359277813729361,-0.7474769154802147,-0.09502911385667463,"(0.0, 0.0, 0.0, 0.0, 0.0, 0.0, 0.0, 0.0, 0.0)",-116.875,-28.75,-26.8125,"(0.0, 0.0, 0.0, 0.0, 0.0, 0.0, 0.0, 0.0, 0.0)",0.96240234375,0.53662109375,-0.32958984375,"(0.0, 0.0, 0.0, 0.0, 0.0, 0.0, 0.0, 0.0, 0.0)"
2022/11/28/22:58:34.689797,2566,1669697914,689215183,RL_myo,0.6421665699109113,0.11267365155931396,-0.7482482635241765,-0.1226836617736842,"(0.0, 0.0, 0.0, 0.0, 0.0, 0.0, 0.0, 0.0, 0.0)",-156.375,-40.5625,-51.625,"(0.0, 0.0, 0.0, 0.0, 0.0, 0.0, 0.0, 0.0, 0.0)",1.0205078125,0.7099609375,-0.3525390625,"(0.0, 0.0, 0.0, 0.0, 0.0, 0.0, 0.0, 0.0, 0.0)"
2022/11/28/22:58:34.706241,2567,1669697914,705907106,RL_myo,0.6374590025617625,0.09900023957824383,-0.7473846693191096,-0.15893749929824103,"(0.0, 0.0, 0.0, 0.0, 0.0, 0.0, 0.0, 0.0, 0.0)",-203.4375,-46.625,-72.25,"(0.0, 0.0, 0.0, 0.0, 0.0, 0.0, 0.0, 0.0, 0.0)",1.08203125,0.83544921875,-0.35888671875,"(0.0, 0.0, 0.0, 0.0, 0.0, 0.0, 0.0, 0.0, 0.0)"
2022/11/28/22:58:34.729462,2568,1669697914,728810787,RL_myo,0.6331219754564777,0.08117730910605567,-0.7421315048274668,-0.20446916203405,"(0.0, 0.0, 0.0, 0.0, 0.0, 0.0, 0.0, 0.0, 0.0)",-263.375,-37.6875,-88.6875,"(0.0, 0.0, 0.0, 0.0, 0.0, 0.0, 0.0, 0.0, 0.0)",1.0498046875,1.02001953125,-0.34375,"(0.0, 0.0, 0.0, 0.0, 0.0, 0.0, 0.0, 0.0, 0.0)"
2022/11/28/22:58:34.749961,2569,1669697914,749346494,RL_myo,0.6290829787920793,0.06500178251805225,-0.7305834147803618,-0.2574436794940323,"(0.0, 0.0, 0.0, 0.0, 0.0, 0.0, 0.0, 0.0, 0.0)",-296.8125,-15.5625,-126.8125,"(0.0, 0.0, 0.0, 0.0, 0.0, 0.0, 0.0, 0.0, 0.0)",1.07470703125,1.00927734375,-0.28857421875,"(0.0, 0.0, 0.0, 0.0, 0.0, 0.0, 0.0, 0.0, 0.0)"
2022/11/28/22:58:34.766295,2570,1669697914,765953779,RL_myo,0.6260849129254106,0.05547974126040146,-0.7125088003013494,-0.3118828139061072,"(0.0, 0.0, 0.0, 0.0, 0.0, 0.0, 0.0, 0.0, 0.0)",-289.5625,20.4375,-165.1875,"(0.0, 0.0, 0.0, 0.0, 0.0, 0.0, 0.0, 0.0, 0.0)",1.1640625,0.8779296875,-0.16455078125,"(0.0, 0.0, 0.0, 0.0, 0.0, 0.0, 0.0, 0.0, 0.0)"
2022/11/28/22:58:34.789327,2571,1669697914,788938522,RL_myo,0.6247986071898941,0.05682206733357345,-0.6894329458647107,-0.36204994997073864,"(0.0, 0.0, 0.0, 0.0, 0.0, 0.0, 0.0, 0.0, 0.0)",-241.125,64.3125,-196.875,"(0.0, 0.0, 0.0, 0.0, 0.0, 0.0, 0.0, 0.0, 0.0)",1.18896484375,0.74169921875,0.04638671875,"(0.0, 0.0, 0.0, 0.0, 0.0, 0.0, 0.0, 0.0, 0.0)"
2022/11/28/22:58:34.809496,2572,1669697914,809054136,RL_myo,0.6246953652863776,0.07281500447353673,-0.6640020399560822,-0.4044192955923339,"(0.0, 0.0, 0.0, 0.0, 0.0, 0.0, 0.0, 0.0, 0.0)",-161.625,108.5625,-227.75,"(0.0, 0.0, 0.0, 0.0, 0.0, 0.0, 0.0, 0.0, 0.0)",1.259765625,0.71630859375,0.27783203125,"(0.0, 0.0, 0.0, 0.0, 0.0, 0.0, 0.0, 0.0, 0.0)"
2022/11/28/22:58:34.826604,2573,1669697914,826272487,RL_myo,0.6255927599200832,0.10033897534718213,-0.6348088093589058,-0.44224830618350464,"(0.0, 0.0, 0.0, 0.0, 0.0, 0.0, 0.0, 0.0, 0.0)",-109.25,153.25,-260.0625,"(0.0, 0.0, 0.0, 0.0, 0.0, 0.0, 0.0, 0.0, 0.0)",1.44189453125,0.63720703125,0.55224609375,"(0.0, 0.0, 0.0, 0.0, 0.0, 0.0, 0.0, 0.0, 0.0)"
2022/11/28/22:58:34.848923,2574,1669697914,848583936,RL_myo,0.6268679927047718,0.13750692119207972,-0.6042248201516153,-0.4722718846801211,"(0.0, 0.0, 0.0, 0.0, 0.0, 0.0, 0.0, 0.0, 0.0)",-46.625,187.6875,-268.9375,"(0.0, 0.0, 0.0, 0.0, 0.0, 0.0, 0.0, 0.0, 0.0)",1.36669921875,0.599609375,0.80712890625,"(0.0, 0.0, 0.0, 0.0, 0.0, 0.0, 0.0, 0.0, 0.0)"
2022/11/28/22:58:34.869664,2575,1669697914,869202852,RL_myo,0.6280423443412966,0.1810885943304788,-0.5717077394990209,-0.4959032116397507,"(0.0, 0.0, 0.0, 0.0, 0.0, 0.0, 0.0, 0.0, 0.0)",-4.875,217.375,-271.25,"(0.0, 0.0, 0.0, 0.0, 0.0, 0.0, 0.0, 0.0, 0.0)",1.22265625,0.5224609375,0.9248046875,"(0.0, 0.0, 0.0, 0.0, 0.0, 0.0, 0.0, 0.0, 0.0)"
2022/11/28/22:58:34.886424,2576,1669697914,886007308,RL_myo,0.6300018165433025,0.2264393275891932,-0.5353367499419982,-0.5150121418322404,"(0.0, 0.0, 0.0, 0.0, 0.0, 0.0, 0.0, 0.0, 0.0)",5.8125,245.1875,-262.875,"(0.0, 0.0, 0.0, 0.0, 0.0, 0.0, 0.0, 0.0, 0.0)",1.06005859375,0.37548828125,0.908203125,"(0.0, 0.0, 0.0, 0.0, 0.0, 0.0, 0.0, 0.0, 0.0)"
2022/11/28/22:58:34.909059,2577,1669697914,908720016,RL_myo,0.6333166582803235,0.27185740130884356,-0.49708277419380825,-0.5271738605982222,"(0.0, 0.0, 0.0, 0.0, 0.0, 0.0, 0.0, 0.0, 0.0)",20.625,266.375,-234.875,"(0.0, 0.0, 0.0, 0.0, 0.0, 0.0, 0.0, 0.0, 0.0)",0.78466796875,0.13671875,0.83984375,"(0.0, 0.0, 0.0, 0.0, 0.0, 0.0, 0.0, 0.0, 0.0)"
2022/11/28/22:58:34.930350,2578,1669697914,929507017,RL_myo,0.635195935445728,0.32110750613817385,-0.46081765279285547,-0.5301539247892375,"(0.0, 0.0, 0.0, 0.0, 0.0, 0.0, 0.0, 0.0, 0.0)",69.375,280.9375,-209.75,"(0.0, 0.0, 0.0, 0.0, 0.0, 0.0, 0.0, 0.0, 0.0)",0.4375,-0.0146484375,0.74609375,"(0.0, 0.0, 0.0, 0.0, 0.0, 0.0, 0.0, 0.0, 0.0)"
2022/11/28/22:58:34.946765,2579,1669697914,946257114,RL_myo,0.6334836849464236,0.37237536967512574,-0.4279783793086349,-0.5261839144352171,"(0.0, 0.0, 0.0, 0.0, 0.0, 0.0, 0.0, 0.0, 0.0)",111.125,276.625,-188.4375,"(0.0, 0.0, 0.0, 0.0, 0.0, 0.0, 0.0, 0.0, 0.0)",0.08056640625,0.13720703125,0.73193359375,"(0.0, 0.0, 0.0, 0.0, 0.0, 0.0, 0.0, 0.0, 0.0)"
2022/11/28/22:58:34.968795,2580,1669697914,968239307,RL_myo,0.630067386134003,0.419678712298499,-0.39795014604220674,-0.518189684033487,"(0.0, 0.0, 0.0, 0.0, 0.0, 0.0, 0.0, 0.0, 0.0)",116.0625,260.0625,-161.6875,"(0.0, 0.0, 0.0, 0.0, 0.0, 0.0, 0.0, 0.0, 0.0)",0.01708984375,0.44873046875,0.6396484375,"(0.0, 0.0, 0.0, 0.0, 0.0, 0.0, 0.0, 0.0, 0.0)"
2022/11/28/22:58:34.991374,2581,1669697914,990283727,RL_myo,0.629888829002793,0.4591108305968032,-0.36853379355802945,-0.5065966357289905,"(0.0, 0.0, 0.0, 0.0, 0.0, 0.0, 0.0, 0.0, 0.0)",86.375,251.5625,-122.25,"(0.0, 0.0, 0.0, 0.0, 0.0, 0.0, 0.0, 0.0, 0.0)",0.154296875,0.64892578125,0.48046875,"(0.0, 0.0, 0.0, 0.0, 0.0, 0.0, 0.0, 0.0, 0.0)"
2022/11/28/22:58:35.006315,2582,1669697915,5882024,RL_myo,0.6366077311999263,0.4899987407548426,-0.3378964908842562,-0.4903649580498761,"(0.0, 0.0, 0.0, 0.0, 0.0, 0.0, 0.0, 0.0, 0.0)",42.3125,258.5625,-71.125,"(0.0, 0.0, 0.0, 0.0, 0.0, 0.0, 0.0, 0.0, 0.0)",0.15380859375,0.53955078125,0.3798828125,"(0.0, 0.0, 0.0, 0.0, 0.0, 0.0, 0.0, 0.0, 0.0)"
2022/11/28/22:58:35.028923,2583,1669697915,28558015,RL_myo,0.6488136860529562,0.5131304476620134,-0.3078050252836367,-0.47010000093883997,"(0.0, 0.0, 0.0, 0.0, 0.0, 0.0, 0.0, 0.0, 0.0)",8.25,255.6875,-20.9375,"(0.0, 0.0, 0.0, 0.0, 0.0, 0.0, 0.0, 0.0, 0.0)",-0.0546875,0.37451171875,0.310546875,"(0.0, 0.0, 0.0, 0.0, 0.0, 0.0, 0.0, 0.0, 0.0)"
2022/11/28/22:58:35.050119,2584,1669697915,49325942,RL_myo,0.6623534527048012,0.52923578956905,-0.2826537817430828,-0.4486693909724469,"(0.0, 0.0, 0.0, 0.0, 0.0, 0.0, 0.0, 0.0, 0.0)",-6.9375,223.75,15.375,"(0.0, 0.0, 0.0, 0.0, 0.0, 0.0, 0.0, 0.0, 0.0)",-0.1396484375,0.380859375,0.298828125,"(0.0, 0.0, 0.0, 0.0, 0.0, 0.0, 0.0, 0.0, 0.0)"
2022/11/28/22:58:35.065932,2585,1669697915,65494060,RL_myo,0.6726874587114782,0.5432892722975109,-0.26660909351707984,-0.4257322406780293,"(0.0, 0.0, 0.0, 0.0, 0.0, 0.0, 0.0, 0.0, 0.0)",20.25,183.6875,42.75,"(0.0, 0.0, 0.0, 0.0, 0.0, 0.0, 0.0, 0.0, 0.0)",-0.07421875,0.39501953125,0.24658203125,"(0.0, 0.0, 0.0, 0.0, 0.0, 0.0, 0.0, 0.0, 0.0)"
2022/11/28/22:58:35.088911,2586,1669697915,88319063,RL_myo,0.6784041152158948,0.5570665190801145,-0.2586053293899907,-0.40319726361819175,"(0.0, 0.0, 0.0, 0.0, 0.0, 0.0, 0.0, 0.0, 0.0)",51.5,143.375,53.5625,"(0.0, 0.0, 0.0, 0.0, 0.0, 0.0, 0.0, 0.0, 0.0)",0.01953125,0.5009765625,0.2021484375,"(0.0, 0.0, 0.0, 0.0, 0.0, 0.0, 0.0, 0.0, 0.0)"
2022/11/28/22:58:35.109852,2587,1669697915,109251022,RL_myo,0.6842159171039962,0.5669653571792169,-0.25378856229423874,-0.3820866762775216,"(0.0, 0.0, 0.0, 0.0, 0.0, 0.0, 0.0, 0.0, 0.0)",38.0625,118.5,61.4375,"(0.0, 0.0, 0.0, 0.0, 0.0, 0.0, 0.0, 0.0, 0.0)",0.1689453125,0.658203125,0.044921875,"(0.0, 0.0, 0.0, 0.0, 0.0, 0.0, 0.0, 0.0, 0.0)"
2022/11/28/22:58:35.126576,2588,1669697915,126116037,RL_myo,0.6933580279877024,0.5719593380521795,-0.2518916004846169,-0.358702916415821,"(0.0, 0.0, 0.0, 0.0, 0.0, 0.0, 0.0, 0.0, 0.0)",16.0,108.125,94.5625,"(0.0, 0.0, 0.0, 0.0, 0.0, 0.0, 0.0, 0.0, 0.0)",0.177734375,0.84912109375,-0.01904296875,"(0.0, 0.0, 0.0, 0.0, 0.0, 0.0, 0.0, 0.0, 0.0)"
2022/11/28/22:58:35.149259,2589,1669697915,148875951,RL_myo,0.7003473399584929,0.5746095396870535,-0.25525994210444636,-0.3379050787877128,"(0.0, 0.0, 0.0, 0.0, 0.0, 0.0, 0.0, 0.0, 0.0)",13.3125,72.75,91.4375,"(0.0, 0.0, 0.0, 0.0, 0.0, 0.0, 0.0, 0.0, 0.0)",0.1611328125,0.91943359375,0.0361328125,"(0.0, 0.0, 0.0, 0.0, 0.0, 0.0, 0.0, 0.0, 0.0)"
2022/11/28/22:58:35.169802,2590,1669697915,169304132,RL_myo,0.7052649008394414,0.5744658802856618,-0.25891248025624497,-0.324891827535123,"(0.0, 0.0, 0.0, 0.0, 0.0, 0.0, 0.0, 0.0, 0.0)",8.0,38.6875,55.875,"(0.0, 0.0, 0.0, 0.0, 0.0, 0.0, 0.0, 0.0, 0.0)",0.2548828125,0.810546875,0.15234375,"(0.0, 0.0, 0.0, 0.0, 0.0, 0.0, 0.0, 0.0, 0.0)"
2022/11/28/22:58:35.185992,2591,1669697915,185690641,RL_myo,0.7087593493331291,0.5750887521027164,-0.26355691271274984,-0.31220324421623796,"(0.0, 0.0, 0.0, 0.0, 0.0, 0.0, 0.0, 0.0, 0.0)",12.75,34.4375,47.9375,"(0.0, 0.0, 0.0, 0.0, 0.0, 0.0, 0.0, 0.0, 0.0)",0.36572265625,0.84619140625,0.091796875,"(0.0, 0.0, 0.0, 0.0, 0.0, 0.0, 0.0, 0.0, 0.0)"
2022/11/28/22:58:35.209081,2592,1669697915,208786964,RL_myo,0.712042793437156,0.5765434790680075,-0.26666509210757194,-0.29913609897441296,"(0.0, 0.0, 0.0, 0.0, 0.0, 0.0, 0.0, 0.0, 0.0)",10.375,40.8125,53.5,"(0.0, 0.0, 0.0, 0.0, 0.0, 0.0, 0.0, 0.0, 0.0)",0.2333984375,1.02490234375,0.0595703125,"(0.0, 0.0, 0.0, 0.0, 0.0, 0.0, 0.0, 0.0, 0.0)"
2022/11/28/22:58:35.230224,2593,1669697915,229444026,RL_myo,0.7144967076072912,0.5774691056443347,-0.2673411566136969,-0.2907792854127059,"(0.0, 0.0, 0.0, 0.0, 0.0, 0.0, 0.0, 0.0, 0.0)",4.3125,30.5625,38.5,"(0.0, 0.0, 0.0, 0.0, 0.0, 0.0, 0.0, 0.0, 0.0)",0.05810546875,1.06201171875,0.1279296875,"(0.0, 0.0, 0.0, 0.0, 0.0, 0.0, 0.0, 0.0, 0.0)"
2022/11/28/22:58:35.245790,2594,1669697915,245412349,RL_myo,0.7172879071880747,0.575563730835904,-0.268982965195528,-0.2861339098789733,"(0.0, 0.0, 0.0, 0.0, 0.0, 0.0, 0.0, 0.0, 0.0)",-4.8125,10.5,27.5,"(0.0, 0.0, 0.0, 0.0, 0.0, 0.0, 0.0, 0.0, 0.0)",0.11279296875,0.89013671875,0.21142578125,"(0.0, 0.0, 0.0, 0.0, 0.0, 0.0, 0.0, 0.0, 0.0)"
2022/11/28/22:58:35.275290,2595,1669697915,274443626,RL_myo,0.7201040457967067,0.5737394499482152,-0.27087826370959356,-0.280888186027839,"(0.0, 0.0, 0.0, 0.0, 0.0, 0.0, 0.0, 0.0, 0.0)",0.6875,11.5625,29.25,"(0.0, 0.0, 0.0, 0.0, 0.0, 0.0, 0.0, 0.0, 0.0)",0.14794921875,0.8544921875,0.259765625,"(0.0, 0.0, 0.0, 0.0, 0.0, 0.0, 0.0, 0.0, 0.0)"
2022/11/28/22:58:35.293947,2596,1669697915,293474674,RL_myo,0.7223194641032243,0.5743642181182476,-0.26996949380839624,-0.2747304299415762,"(0.0, 0.0, 0.0, 0.0, 0.0, 0.0, 0.0, 0.0, 0.0)",5.4375,28.625,23.25,"(0.0, 0.0, 0.0, 0.0, 0.0, 0.0, 0.0, 0.0, 0.0)",0.09765625,0.93359375,0.2197265625,"(0.0, 0.0, 0.0, 0.0, 0.0, 0.0, 0.0, 0.0, 0.0)"
2022/11/28/22:58:35.305342,2597,1669697915,305053949,RL_myo,0.719884593686545,0.5796798360387585,-0.2693616001304666,-0.27052132603177614,"(0.0, 0.0, 0.0, 0.0, 0.0, 0.0, 0.0, 0.0, 0.0)",32.0,19.875,9.6875,"(0.0, 0.0, 0.0, 0.0, 0.0, 0.0, 0.0, 0.0, 0.0)",-0.00537109375,1.17138671875,0.16357421875,"(0.0, 0.0, 0.0, 0.0, 0.0, 0.0, 0.0, 0.0, 0.0)"
2022/11/28/22:58:35.329042,2598,1669697915,328624010,RL_myo,0.7133808980872093,0.5868546659059306,-0.26867750798938184,-0.2729499808560917,"(0.0, 0.0, 0.0, 0.0, 0.0, 0.0, 0.0, 0.0, 0.0)",41.9375,-4.8125,-26.3125,"(0.0, 0.0, 0.0, 0.0, 0.0, 0.0, 0.0, 0.0, 0.0)",-0.01806640625,1.306640625,0.158203125,"(0.0, 0.0, 0.0, 0.0, 0.0, 0.0, 0.0, 0.0, 0.0)"
2022/11/28/22:58:35.350028,2599,1669697915,349280595,RL_myo,0.7105961928174906,0.5890709377153068,-0.2679537267195313,-0.27613272430049196,"(0.0, 0.0, 0.0, 0.0, 0.0, 0.0, 0.0, 0.0, 0.0)",11.625,-9.8125,-15.9375,"(0.0, 0.0, 0.0, 0.0, 0.0, 0.0, 0.0, 0.0, 0.0)",-0.0390625,1.15087890625,0.1796875,"(0.0, 0.0, 0.0, 0.0, 0.0, 0.0, 0.0, 0.0, 0.0)"
2022/11/28/22:58:35.365544,2600,1669697915,365166425,RL_myo,0.7135372703108744,0.5849296545243037,-0.26539435853821064,-0.2797993881184815,"(0.0, 0.0, 0.0, 0.0, 0.0, 0.0, 0.0, 0.0, 0.0)",-32.0625,-5.75,-4.3125,"(0.0, 0.0, 0.0, 0.0, 0.0, 0.0, 0.0, 0.0, 0.0)",-0.06787109375,0.9873046875,0.2412109375,"(0.0, 0.0, 0.0, 0.0, 0.0, 0.0, 0.0, 0.0, 0.0)"
2022/11/28/22:58:35.389055,2601,1669697915,388437986,RL_myo,0.715880459591578,0.5814812122541533,-0.26525846000383646,-0.2811275809428603,"(0.0, 0.0, 0.0, 0.0, 0.0, 0.0, 0.0, 0.0, 0.0)",-19.875,-6.3125,4.3125,"(0.0, 0.0, 0.0, 0.0, 0.0, 0.0, 0.0, 0.0, 0.0)",0.02783203125,0.87646484375,0.2236328125,"(0.0, 0.0, 0.0, 0.0, 0.0, 0.0, 0.0, 0.0, 0.0)"
2022/11/28/22:58:35.409638,2602,1669697915,409177780,RL_myo,0.7156253664800132,0.5819605858752176,-0.2658037075497192,-0.28026880024530665,"(0.0, 0.0, 0.0, 0.0, 0.0, 0.0, 0.0, 0.0, 0.0)",9.375,0.625,4.375,"(0.0, 0.0, 0.0, 0.0, 0.0, 0.0, 0.0, 0.0, 0.0)",0.04736328125,0.88037109375,0.228515625,"(0.0, 0.0, 0.0, 0.0, 0.0, 0.0, 0.0, 0.0, 0.0)"
2022/11/28/22:58:35.425705,2603,1669697915,425308942,RL_myo,0.714756618843253,0.5834025416655689,-0.2650886418135139,-0.2801650623817704,"(0.0, 0.0, 0.0, 0.0, 0.0, 0.0, 0.0, 0.0, 0.0)",13.625,3.0625,-1.25,"(0.0, 0.0, 0.0, 0.0, 0.0, 0.0, 0.0, 0.0, 0.0)",-0.01318359375,0.984375,0.26318359375,"(0.0, 0.0, 0.0, 0.0, 0.0, 0.0, 0.0, 0.0, 0.0)"
2022/11/28/22:58:35.449565,2604,1669697915,448727846,RL_myo,0.7148214826484878,0.5833446255376653,-0.2648459066870283,-0.2803496772098458,"(0.0, 0.0, 0.0, 0.0, 0.0, 0.0, 0.0, 0.0, 0.0)",-0.25,0.3125,-0.1875,"(0.0, 0.0, 0.0, 0.0, 0.0, 0.0, 0.0, 0.0, 0.0)",-0.0224609375,0.99609375,0.2529296875,"(0.0, 0.0, 0.0, 0.0, 0.0, 0.0, 0.0, 0.0, 0.0)"
2022/11/28/22:58:35.472027,2605,1669697915,471169710,RL_myo,0.7165100262342303,0.5812526603482899,-0.2639838030039225,-0.2811961573269528,"(0.0, 0.0, 0.0, 0.0, 0.0, 0.0, 0.0, 0.0, 0.0)",-12.375,-0.5,1.0625,"(0.0, 0.0, 0.0, 0.0, 0.0, 0.0, 0.0, 0.0, 0.0)",0.02392578125,0.95947265625,0.24462890625,"(0.0, 0.0, 0.0, 0.0, 0.0, 0.0, 0.0, 0.0, 0.0)"
2022/11/28/22:58:35.486719,2606,1669697915,486304759,RL_myo,0.7175714084286181,0.580051130852089,-0.2630159236916396,-0.28187689385193593,"(0.0, 0.0, 0.0, 0.0, 0.0, 0.0, 0.0, 0.0, 0.0)",-6.75,0.75,-1.0,"(0.0, 0.0, 0.0, 0.0, 0.0, 0.0, 0.0, 0.0, 0.0)",0.02734375,0.90576171875,0.2373046875,"(0.0, 0.0, 0.0, 0.0, 0.0, 0.0, 0.0, 0.0, 0.0)"
2022/11/28/22:58:35.508668,2607,1669697915,508267879,RL_myo,0.7177442079652916,0.5799817555987925,-0.26191346172115537,-0.28260529661359807,"(0.0, 0.0, 0.0, 0.0, 0.0, 0.0, 0.0, 0.0, 0.0)",1.5625,1.6875,-3.75,"(0.0, 0.0, 0.0, 0.0, 0.0, 0.0, 0.0, 0.0, 0.0)",0.0068359375,0.90673828125,0.251953125,"(0.0, 0.0, 0.0, 0.0, 0.0, 0.0, 0.0, 0.0, 0.0)"
2022/11/28/22:58:35.531915,2608,1669697915,531229496,RL_myo,0.7179137396816445,0.5799097467025425,-0.2606877726730406,-0.2834544641286819,"(0.0, 0.0, 0.0, 0.0, 0.0, 0.0, 0.0, 0.0, 0.0)",-0.0625,1.4375,-4.75,"(0.0, 0.0, 0.0, 0.0, 0.0, 0.0, 0.0, 0.0, 0.0)",0.009765625,0.947265625,0.2470703125,"(0.0, 0.0, 0.0, 0.0, 0.0, 0.0, 0.0, 0.0, 0.0)"
2022/11/28/22:58:35.545967,2609,1669697915,545631408,RL_myo,0.7186633007744568,0.5791911042168185,-0.25941218178116543,-0.28419367491131914,"(0.0, 0.0, 0.0, 0.0, 0.0, 0.0, 0.0, 0.0, 0.0)",-3.75,2.25,-3.5,"(0.0, 0.0, 0.0, 0.0, 0.0, 0.0, 0.0, 0.0, 0.0)",0.01904296875,0.9677734375,0.259765625,"(0.0, 0.0, 0.0, 0.0, 0.0, 0.0, 0.0, 0.0, 0.0)"
2022/11/28/22:58:35.568969,2610,1669697915,568537235,RL_myo,0.7190673882367518,0.5788672532074827,-0.258488276817133,-0.28467280355964775,"(0.0, 0.0, 0.0, 0.0, 0.0, 0.0, 0.0, 0.0, 0.0)",-1.3125,1.75,-1.9375,"(0.0, 0.0, 0.0, 0.0, 0.0, 0.0, 0.0, 0.0, 0.0)",0.01416015625,0.9716796875,0.2470703125,"(0.0, 0.0, 0.0, 0.0, 0.0, 0.0, 0.0, 0.0, 0.0)"
2022/11/28/22:58:35.591853,2611,1669697915,591301202,RL_myo,0.719382261482039,0.5784477933196406,-0.2573320562029761,-0.28577530529941514,"(0.0, 0.0, 0.0, 0.0, 0.0, 0.0, 0.0, 0.0, 0.0)",-2.6875,-0.125,-3.375,"(0.0, 0.0, 0.0, 0.0, 0.0, 0.0, 0.0, 0.0, 0.0)",-0.017578125,0.97314453125,0.251953125,"(0.0, 0.0, 0.0, 0.0, 0.0, 0.0, 0.0, 0.0, 0.0)"
2022/11/28/22:58:35.605399,2612,1669697915,605138540,RL_myo,0.719720688083797,0.5777540733888418,-0.2565286679118215,-0.2870459969520096,"(0.0, 0.0, 0.0, 0.0, 0.0, 0.0, 0.0, 0.0, 0.0)",-4.75,-2.6875,-1.8125,"(0.0, 0.0, 0.0, 0.0, 0.0, 0.0, 0.0, 0.0, 0.0)",-0.02880859375,0.99609375,0.23876953125,"(0.0, 0.0, 0.0, 0.0, 0.0, 0.0, 0.0, 0.0, 0.0)"
2022/11/28/22:58:35.629135,2613,1669697915,628745555,RL_myo,0.7199252367436444,0.5770388459664616,-0.2565973459321985,-0.2879090582212608,"(0.0, 0.0, 0.0, 0.0, 0.0, 0.0, 0.0, 0.0, 0.0)",-3.75,-4.625,1.8125,"(0.0, 0.0, 0.0, 0.0, 0.0, 0.0, 0.0, 0.0, 0.0)",-0.01611328125,1.0224609375,0.22314453125,"(0.0, 0.0, 0.0, 0.0, 0.0, 0.0, 0.0, 0.0, 0.0)"
2022/11/28/22:58:35.653581,2614,1669697915,651424407,RL_myo,0.7198128847581672,0.5767414523937863,-0.25702807239181225,-0.2884012448471415,"(0.0, 0.0, 0.0, 0.0, 0.0, 0.0, 0.0, 0.0, 0.0)",-2.25,-5.375,4.9375,"(0.0, 0.0, 0.0, 0.0, 0.0, 0.0, 0.0, 0.0, 0.0)",-0.03564453125,1.0439453125,0.20068359375,"(0.0, 0.0, 0.0, 0.0, 0.0, 0.0, 0.0, 0.0, 0.0)"
2022/11/28/22:58:35.664878,2615,1669697915,664488792,RL_myo,0.7191843392324735,0.576909986796685,-0.25683847063483395,-0.28979778007941814,"(0.0, 0.0, 0.0, 0.0, 0.0, 0.0, 0.0, 0.0, 0.0)",-0.25,-6.3125,2.4375,"(0.0, 0.0, 0.0, 0.0, 0.0, 0.0, 0.0, 0.0, 0.0)",-0.10595703125,1.12353515625,0.21826171875,"(0.0, 0.0, 0.0, 0.0, 0.0, 0.0, 0.0, 0.0, 0.0)"
2022/11/28/22:58:35.689227,2616,1669697915,688776016,RL_myo,0.7183520133111426,0.5771719464585067,-0.25538149576801944,-0.2926144576271236,"(0.0, 0.0, 0.0, 0.0, 0.0, 0.0, 0.0, 0.0, 0.0)",-2.125,-6.75,-5.9375,"(0.0, 0.0, 0.0, 0.0, 0.0, 0.0, 0.0, 0.0, 0.0)",-0.142578125,1.21435546875,0.26513671875,"(0.0, 0.0, 0.0, 0.0, 0.0, 0.0, 0.0, 0.0, 0.0)"
2022/11/28/22:58:35.712297,2617,1669697915,711833953,RL_myo,0.7175451737147199,0.576978098598609,-0.2517145539638912,-0.2981022991172756,"(0.0, 0.0, 0.0, 0.0, 0.0, 0.0, 0.0, 0.0, 0.0)",-6.375,-7.5,-23.4375,"(0.0, 0.0, 0.0, 0.0, 0.0, 0.0, 0.0, 0.0, 0.0)",-0.15625,1.14990234375,0.32861328125,"(0.0, 0.0, 0.0, 0.0, 0.0, 0.0, 0.0, 0.0, 0.0)"
2022/11/28/22:58:35.732199,2618,1669697915,731670618,RL_myo,0.7156039263939732,0.5786967610151194,-0.24592018248390635,-0.3042110174980862,"(0.0, 0.0, 0.0, 0.0, 0.0, 0.0, 0.0, 0.0, 0.0)",0.5,1.75,-41.0,"(0.0, 0.0, 0.0, 0.0, 0.0, 0.0, 0.0, 0.0, 0.0)",-0.13330078125,1.09326171875,0.31591796875,"(0.0, 0.0, 0.0, 0.0, 0.0, 0.0, 0.0, 0.0, 0.0)"
2022/11/28/22:58:35.748919,2619,1669697915,748513698,RL_myo,0.7127236375129379,0.582776851158134,-0.2332206062290773,-0.3130563960609624,"(0.0, 0.0, 0.0, 0.0, 0.0, 0.0, 0.0, 0.0, 0.0)",-2.3125,22.9375,-75.1875,"(0.0, 0.0, 0.0, 0.0, 0.0, 0.0, 0.0, 0.0, 0.0)",-0.2431640625,1.16064453125,0.34033203125,"(0.0, 0.0, 0.0, 0.0, 0.0, 0.0, 0.0, 0.0, 0.0)"
2022/11/28/22:58:35.772166,2620,1669697915,771802902,RL_myo,0.7092976654529227,0.5877752790905814,-0.21960700458649135,-0.32123170237318066,"(0.0, 0.0, 0.0, 0.0, 0.0, 0.0, 0.0, 0.0, 0.0)",6.875,32.3125,-87.125,"(0.0, 0.0, 0.0, 0.0, 0.0, 0.0, 0.0, 0.0, 0.0)",-0.14306640625,1.15576171875,0.4033203125,"(0.0, 0.0, 0.0, 0.0, 0.0, 0.0, 0.0, 0.0, 0.0)"
2022/11/28/22:58:35.792490,2621,1669697915,791840791,RL_myo,0.7017897965137484,0.5969913028092688,-0.20508033712699553,-0.33020375710031125,"(0.0, 0.0, 0.0, 0.0, 0.0, 0.0, 0.0, 0.0, 0.0)",26.6875,36.125,-109.5,"(0.0, 0.0, 0.0, 0.0, 0.0, 0.0, 0.0, 0.0, 0.0)",-0.21337890625,1.14697265625,0.34814453125,"(0.0, 0.0, 0.0, 0.0, 0.0, 0.0, 0.0, 0.0, 0.0)"
2022/11/28/22:58:35.808763,2622,1669697915,808336019,RL_myo,0.6941577194731997,0.6061444044744876,-0.1880506404376091,-0.3396630360387195,"(0.0, 0.0, 0.0, 0.0, 0.0, 0.0, 0.0, 0.0, 0.0)",21.6875,44.625,-120.875,"(0.0, 0.0, 0.0, 0.0, 0.0, 0.0, 0.0, 0.0, 0.0)",-0.22119140625,1.158203125,0.36376953125,"(0.0, 0.0, 0.0, 0.0, 0.0, 0.0, 0.0, 0.0, 0.0)"
2022/11/28/22:58:35.832145,2623,1669697915,831536293,RL_myo,0.6875679944891309,0.6137147079084075,-0.1687028794290242,-0.3494908421167122,"(0.0, 0.0, 0.0, 0.0, 0.0, 0.0, 0.0, 0.0, 0.0)",6.3125,50.6875,-127.6875,"(0.0, 0.0, 0.0, 0.0, 0.0, 0.0, 0.0, 0.0, 0.0)",-0.1943359375,1.0810546875,0.3154296875,"(0.0, 0.0, 0.0, 0.0, 0.0, 0.0, 0.0, 0.0, 0.0)"
2022/11/28/22:58:35.852384,2624,1669697915,851741552,RL_myo,0.6823317039757586,0.6194636786519343,-0.1488080055723141,-0.3585308550991686,"(0.0, 0.0, 0.0, 0.0, 0.0, 0.0, 0.0, 0.0, 0.0)",-5.5,53.875,-122.875,"(0.0, 0.0, 0.0, 0.0, 0.0, 0.0, 0.0, 0.0, 0.0)",-0.1689453125,0.94384765625,0.302734375,"(0.0, 0.0, 0.0, 0.0, 0.0, 0.0, 0.0, 0.0, 0.0)"
2022/11/28/22:58:35.869380,2625,1669697915,868975400,RL_myo,0.6772661507389992,0.6247743618388966,-0.12945940029897415,-0.36634385695164684,"(0.0, 0.0, 0.0, 0.0, 0.0, 0.0, 0.0, 0.0, 0.0)",-5.875,54.9375,-115.6875,"(0.0, 0.0, 0.0, 0.0, 0.0, 0.0, 0.0, 0.0, 0.0)",-0.16357421875,0.83447265625,0.2734375,"(0.0, 0.0, 0.0, 0.0, 0.0, 0.0, 0.0, 0.0, 0.0)"
2022/11/28/22:58:35.891560,2626,1669697915,890848159,RL_myo,0.6708720083119536,0.6308919186527479,-0.11139490630236695,-0.3734933872132512,"(0.0, 0.0, 0.0, 0.0, 0.0, 0.0, 0.0, 0.0, 0.0)",4.9375,53.5625,-111.8125,"(0.0, 0.0, 0.0, 0.0, 0.0, 0.0, 0.0, 0.0, 0.0)",-0.177734375,0.751953125,0.24169921875,"(0.0, 0.0, 0.0, 0.0, 0.0, 0.0, 0.0, 0.0, 0.0)"
2022/11/28/22:58:35.913230,2627,1669697915,912081003,RL_myo,0.6637033913217196,0.6375190290928233,-0.09527689845992315,-0.3794596269861257,"(0.0, 0.0, 0.0, 0.0, 0.0, 0.0, 0.0, 0.0, 0.0)",14.125,50.625,-102.625,"(0.0, 0.0, 0.0, 0.0, 0.0, 0.0, 0.0, 0.0, 0.0)",-0.17431640625,0.73095703125,0.2041015625,"(0.0, 0.0, 0.0, 0.0, 0.0, 0.0, 0.0, 0.0, 0.0)"
2022/11/28/22:58:35.928602,2628,1669697915,928330183,RL_myo,0.6578392311486917,0.6430686713103188,-0.08154325596721582,-0.3834852374565995,"(0.0, 0.0, 0.0, 0.0, 0.0, 0.0, 0.0, 0.0, 0.0)",14.375,49.4375,-89.25,"(0.0, 0.0, 0.0, 0.0, 0.0, 0.0, 0.0, 0.0, 0.0)",-0.177734375,0.7236328125,0.18896484375,"(0.0, 0.0, 0.0, 0.0, 0.0, 0.0, 0.0, 0.0, 0.0)"
2022/11/28/22:58:35.951731,2629,1669697915,951208353,RL_myo,0.653276417725424,0.6473558522279592,-0.06988708757316739,-0.38636267627785986,"(0.0, 0.0, 0.0, 0.0, 0.0, 0.0, 0.0, 0.0, 0.0)",9.875,43.75,-73.5625,"(0.0, 0.0, 0.0, 0.0, 0.0, 0.0, 0.0, 0.0, 0.0)",-0.18994140625,0.68310546875,0.17626953125,"(0.0, 0.0, 0.0, 0.0, 0.0, 0.0, 0.0, 0.0, 0.0)"
2022/11/28/22:58:35.972689,2630,1669697915,971926927,RL_myo,0.6499054681696843,0.6506989290154963,-0.061340626926233356,-0.3878802827026995,"(0.0, 0.0, 0.0, 0.0, 0.0, 0.0, 0.0, 0.0, 0.0)",8.3125,34.875,-52.375,"(0.0, 0.0, 0.0, 0.0, 0.0, 0.0, 0.0, 0.0, 0.0)",-0.20361328125,0.6337890625,0.15380859375,"(0.0, 0.0, 0.0, 0.0, 0.0, 0.0, 0.0, 0.0, 0.0)"
2022/11/28/22:58:35.988961,2631,1669697915,988511323,RL_myo,0.6471893244706187,0.6536593865656753,-0.05548383438119329,-0.3883258023467015,"(0.0, 0.0, 0.0, 0.0, 0.0, 0.0, 0.0, 0.0, 0.0)",9.75,27.25,-35.375,"(0.0, 0.0, 0.0, 0.0, 0.0, 0.0, 0.0, 0.0, 0.0)",-0.2412109375,0.64404296875,0.1279296875,"(0.0, 0.0, 0.0, 0.0, 0.0, 0.0, 0.0, 0.0, 0.0)"
2022/11/28/22:58:36.011793,2632,1669697916,11178255,RL_myo,0.6453941452027181,0.6558923287637989,-0.05218573805072101,-0.38800554010343097,"(0.0, 0.0, 0.0, 0.0, 0.0, 0.0, 0.0, 0.0, 0.0)",8.5625,18.875,-19.8125,"(0.0, 0.0, 0.0, 0.0, 0.0, 0.0, 0.0, 0.0, 0.0)",-0.28564453125,0.70263671875,0.11767578125,"(0.0, 0.0, 0.0, 0.0, 0.0, 0.0, 0.0, 0.0, 0.0)"
2022/11/28/22:58:36.032841,2633,1669697916,32230854,RL_myo,0.6453644179256759,0.6566566166692918,-0.05047918032956909,-0.38698670288932047,"(0.0, 0.0, 0.0, 0.0, 0.0, 0.0, 0.0, 0.0, 0.0)",-2.1875,11.1875,-4.625,"(0.0, 0.0, 0.0, 0.0, 0.0, 0.0, 0.0, 0.0, 0.0)",-0.33935546875,0.7265625,0.0859375,"(0.0, 0.0, 0.0, 0.0, 0.0, 0.0, 0.0, 0.0, 0.0)"
2022/11/28/22:58:36.048925,2634,1669697916,48598527,RL_myo,0.6466826590594289,0.6563264401006171,-0.049683783338780096,-0.38544605870318954,"(0.0, 0.0, 0.0, 0.0, 0.0, 0.0, 0.0, 0.0, 0.0)",-9.0625,7.3125,7.6875,"(0.0, 0.0, 0.0, 0.0, 0.0, 0.0, 0.0, 0.0, 0.0)",-0.3935546875,0.7294921875,0.083984375,"(0.0, 0.0, 0.0, 0.0, 0.0, 0.0, 0.0, 0.0, 0.0)"
2022/11/28/22:58:36.071207,2635,1669697916,70783853,RL_myo,0.6485655634638414,0.6553405284125038,-0.050476540653547605,-0.38385364470394306,"(0.0, 0.0, 0.0, 0.0, 0.0, 0.0, 0.0, 0.0, 0.0)",-7.9375,1.1875,15.5,"(0.0, 0.0, 0.0, 0.0, 0.0, 0.0, 0.0, 0.0, 0.0)",-0.40771484375,0.75634765625,0.1220703125,"(0.0, 0.0, 0.0, 0.0, 0.0, 0.0, 0.0, 0.0, 0.0)"
2022/11/28/22:58:36.092682,2636,1669697916,91977119,RL_myo,0.6506110882632788,0.6538461372995819,-0.05261532583572065,-0.3826513661996899,"(0.0, 0.0, 0.0, 0.0, 0.0, 0.0, 0.0, 0.0, 0.0)",-6.1875,-5.1875,18.5625,"(0.0, 0.0, 0.0, 0.0, 0.0, 0.0, 0.0, 0.0, 0.0)",-0.3994140625,0.78173828125,0.158203125,"(0.0, 0.0, 0.0, 0.0, 0.0, 0.0, 0.0, 0.0, 0.0)"
2022/11/28/22:58:36.109085,2637,1669697916,108687877,RL_myo,0.6520054223250298,0.6527378755236725,-0.054872952131642186,-0.3818522675590139,"(0.0, 0.0, 0.0, 0.0, 0.0, 0.0, 0.0, 0.0, 0.0)",-2.75,-7.375,17.25,"(0.0, 0.0, 0.0, 0.0, 0.0, 0.0, 0.0, 0.0, 0.0)",-0.43994140625,0.83740234375,0.15185546875,"(0.0, 0.0, 0.0, 0.0, 0.0, 0.0, 0.0, 0.0, 0.0)"
2022/11/28/22:58:36.131554,2638,1669697916,130991935,RL_myo,0.6533395246094614,0.6514473791252599,-0.056886438428252806,-0.38148094439547214,"(0.0, 0.0, 0.0, 0.0, 0.0, 0.0, 0.0, 0.0, 0.0)",-3.4375,-8.0625,15.5625,"(0.0, 0.0, 0.0, 0.0, 0.0, 0.0, 0.0, 0.0, 0.0)",-0.46826171875,0.884765625,0.17529296875,"(0.0, 0.0, 0.0, 0.0, 0.0, 0.0, 0.0, 0.0, 0.0)"
2022/11/28/22:58:36.152590,2639,1669697916,151756286,RL_myo,0.6545542063066991,0.6501595864956136,-0.059266331063390985,-0.3812332686116788,"(0.0, 0.0, 0.0, 0.0, 0.0, 0.0, 0.0, 0.0, 0.0)",-1.3125,-9.375,14.1875,"(0.0, 0.0, 0.0, 0.0, 0.0, 0.0, 0.0, 0.0, 0.0)",-0.43115234375,0.8818359375,0.1884765625,"(0.0, 0.0, 0.0, 0.0, 0.0, 0.0, 0.0, 0.0, 0.0)"
2022/11/28/22:58:36.169215,2640,1669697916,168704032,RL_myo,0.6555194902140998,0.6491107801142413,-0.0612794756215043,-0.38104359193730214,"(0.0, 0.0, 0.0, 0.0, 0.0, 0.0, 0.0, 0.0, 0.0)",0.25,-7.1875,9.5625,"(0.0, 0.0, 0.0, 0.0, 0.0, 0.0, 0.0, 0.0, 0.0)",-0.39892578125,0.89697265625,0.2001953125,"(0.0, 0.0, 0.0, 0.0, 0.0, 0.0, 0.0, 0.0, 0.0)"
2022/11/28/22:58:36.191517,2641,1669697916,191037178,RL_myo,0.6558290878129025,0.6485658340716521,-0.06219542489356423,-0.38129030354278287,"(0.0, 0.0, 0.0, 0.0, 0.0, 0.0, 0.0, 0.0, 0.0)",0.6875,-4.75,4.25,"(0.0, 0.0, 0.0, 0.0, 0.0, 0.0, 0.0, 0.0, 0.0)",-0.43994140625,0.91943359375,0.1865234375,"(0.0, 0.0, 0.0, 0.0, 0.0, 0.0, 0.0, 0.0, 0.0)"
2022/11/28/22:58:36.212921,2642,1669697916,211839199,RL_myo,0.6559709354823374,0.6481581244893404,-0.06225833760044517,-0.3817290621109648,"(0.0, 0.0, 0.0, 0.0, 0.0, 0.0, 0.0, 0.0, 0.0)",-0.75,-2.5,2.0625,"(0.0, 0.0, 0.0, 0.0, 0.0, 0.0, 0.0, 0.0, 0.0)",-0.46826171875,0.92236328125,0.17822265625,"(0.0, 0.0, 0.0, 0.0, 0.0, 0.0, 0.0, 0.0, 0.0)"
2022/11/28/22:58:36.234789,2643,1669697916,234364271,RL_myo,0.6562626407990761,0.6476565179984186,-0.06182980423451117,-0.38214847414834596,"(0.0, 0.0, 0.0, 0.0, 0.0, 0.0, 0.0, 0.0, 0.0)",-2.5625,-0.8125,0.375,"(0.0, 0.0, 0.0, 0.0, 0.0, 0.0, 0.0, 0.0, 0.0)",-0.458984375,0.89794921875,0.1767578125,"(0.0, 0.0, 0.0, 0.0, 0.0, 0.0, 0.0, 0.0, 0.0)"
2022/11/28/22:58:36.251767,2644,1669697916,250869989,RL_myo,0.6562757493249718,0.647608417070122,-0.061770001703578076,-0.38221714492866193,"(0.0, 0.0, 0.0, 0.0, 0.0, 0.0, 0.0, 0.0, 0.0)",0.125,-0.375,-0.125,"(0.0, 0.0, 0.0, 0.0, 0.0, 0.0, 0.0, 0.0, 0.0)",-0.4521484375,0.87548828125,0.1728515625,"(0.0, 0.0, 0.0, 0.0, 0.0, 0.0, 0.0, 0.0, 0.0)"
2022/11/28/22:58:36.271961,2645,1669697916,271642446,RL_myo,0.6557802110846999,0.6479674907739364,-0.06140309869240581,-0.3825181108402656,"(0.0, 0.0, 0.0, 0.0, 0.0, 0.0, 0.0, 0.0, 0.0)",3.4375,0.875,-0.125,"(0.0, 0.0, 0.0, 0.0, 0.0, 0.0, 0.0, 0.0, 0.0)",-0.45849609375,0.87353515625,0.1689453125,"(0.0, 0.0, 0.0, 0.0, 0.0, 0.0, 0.0, 0.0, 0.0)"
2022/11/28/22:58:36.289098,2646,1669697916,288621902,RL_myo,0.6553932298689306,0.6480690365755546,-0.060729769390909474,-0.38311634418767715,"(0.0, 0.0, 0.0, 0.0, 0.0, 0.0, 0.0, 0.0, 0.0)",2.1875,0.75,-1.6875,"(0.0, 0.0, 0.0, 0.0, 0.0, 0.0, 0.0, 0.0, 0.0)",-0.47119140625,0.87646484375,0.18212890625,"(0.0, 0.0, 0.0, 0.0, 0.0, 0.0, 0.0, 0.0, 0.0)"
2022/11/28/22:58:36.311357,2647,1669697916,310973882,RL_myo,0.655393350723861,0.6480081211245327,-0.06060771067878505,-0.3832384847453085,"(0.0, 0.0, 0.0, 0.0, 0.0, 0.0, 0.0, 0.0, 0.0)",0.375,-0.8125,0.625,"(0.0, 0.0, 0.0, 0.0, 0.0, 0.0, 0.0, 0.0, 0.0)",-0.45849609375,0.8564453125,0.17919921875,"(0.0, 0.0, 0.0, 0.0, 0.0, 0.0, 0.0, 0.0, 0.0)"
2022/11/28/22:58:36.332994,2648,1669697916,331898212,RL_myo,0.6555829433813589,0.6477093562203687,-0.060181061556095324,-0.38348641963179203,"(0.0, 0.0, 0.0, 0.0, 0.0, 0.0, 0.0, 0.0, 0.0)",-1.5625,-0.375,1.5625,"(0.0, 0.0, 0.0, 0.0, 0.0, 0.0, 0.0, 0.0, 0.0)",-0.45361328125,0.8515625,0.1640625,"(0.0, 0.0, 0.0, 0.0, 0.0, 0.0, 0.0, 0.0, 0.0)"
2022/11/28/22:58:36.348909,2649,1669697916,348465442,RL_myo,0.655746616824,0.6473231752227981,-0.060062800982483115,-0.3838769871736141,"(0.0, 0.0, 0.0, 0.0, 0.0, 0.0, 0.0, 0.0, 0.0)",-0.1875,-1.375,2.5625,"(0.0, 0.0, 0.0, 0.0, 0.0, 0.0, 0.0, 0.0, 0.0)",-0.45751953125,0.841796875,0.1826171875,"(0.0, 0.0, 0.0, 0.0, 0.0, 0.0, 0.0, 0.0, 0.0)"
2022/11/28/22:58:36.371475,2650,1669697916,370970010,RL_myo,0.6554221551682851,0.6472431116971964,-0.06024414855197405,-0.3845371184168556,"(0.0, 0.0, 0.0, 0.0, 0.0, 0.0, 0.0, 0.0, 0.0)",3.5,-2.625,1.0625,"(0.0, 0.0, 0.0, 0.0, 0.0, 0.0, 0.0, 0.0, 0.0)",-0.4501953125,0.84326171875,0.18505859375,"(0.0, 0.0, 0.0, 0.0, 0.0, 0.0, 0.0, 0.0, 0.0)"
2022/11/28/22:58:36.392428,2651,1669697916,391842365,RL_myo,0.654971049375893,0.6472805869566066,-0.060547132697874,-0.38519451054060766,"(0.0, 0.0, 0.0, 0.0, 0.0, 0.0, 0.0, 0.0, 0.0)",4.125,-3.125,-0.1875,"(0.0, 0.0, 0.0, 0.0, 0.0, 0.0, 0.0, 0.0, 0.0)",-0.4404296875,0.85986328125,0.1806640625,"(0.0, 0.0, 0.0, 0.0, 0.0, 0.0, 0.0, 0.0, 0.0)"
2022/11/28/22:58:36.408636,2652,1669697916,408357620,RL_myo,0.6550434405832385,0.6468645530470706,-0.06067025530560371,-0.3857505166312027,"(0.0, 0.0, 0.0, 0.0, 0.0, 0.0, 0.0, 0.0, 0.0)",0.3125,-3.1875,0.9375,"(0.0, 0.0, 0.0, 0.0, 0.0, 0.0, 0.0, 0.0, 0.0)",-0.44287109375,0.86669921875,0.181640625,"(0.0, 0.0, 0.0, 0.0, 0.0, 0.0, 0.0, 0.0, 0.0)"
2022/11/28/22:58:36.431910,2653,1669697916,431239366,RL_myo,0.6552180993769035,0.6463068890826298,-0.06048636576455625,-0.3864169340619633,"(0.0, 0.0, 0.0, 0.0, 0.0, 0.0, 0.0, 0.0, 0.0)",-2.25,-3.125,1.3125,"(0.0, 0.0, 0.0, 0.0, 0.0, 0.0, 0.0, 0.0, 0.0)",-0.4658203125,0.85498046875,0.1689453125,"(0.0, 0.0, 0.0, 0.0, 0.0, 0.0, 0.0, 0.0, 0.0)"
2022/11/28/22:58:36.453851,2654,1669697916,453501462,RL_myo,0.6550930677386458,0.6457546498346104,-0.05993677373701204,-0.3876358961341787,"(0.0, 0.0, 0.0, 0.0, 0.0, 0.0, 0.0, 0.0, 0.0)",-2.0625,-4.125,0.4375,"(0.0, 0.0, 0.0, 0.0, 0.0, 0.0, 0.0, 0.0, 0.0)",-0.50634765625,0.83203125,0.169921875,"(0.0, 0.0, 0.0, 0.0, 0.0, 0.0, 0.0, 0.0, 0.0)"
2022/11/28/22:58:36.468822,2655,1669697916,468509435,RL_myo,0.6546637419783877,0.6452643184966916,-0.05963140741309759,-0.389221581446595,"(0.0, 0.0, 0.0, 0.0, 0.0, 0.0, 0.0, 0.0, 0.0)",-1.125,-7.75,1.5625,"(0.0, 0.0, 0.0, 0.0, 0.0, 0.0, 0.0, 0.0, 0.0)",-0.54443359375,0.8173828125,0.1533203125,"(0.0, 0.0, 0.0, 0.0, 0.0, 0.0, 0.0, 0.0, 0.0)"
2022/11/28/22:58:36.491749,2656,1669697916,491144657,RL_myo,0.6537663911336354,0.6448550016176696,-0.059449954716101296,-0.3914297326430776,"(0.0, 0.0, 0.0, 0.0, 0.0, 0.0, 0.0, 0.0, 0.0)",-0.5,-11.8125,3.375,"(0.0, 0.0, 0.0, 0.0, 0.0, 0.0, 0.0, 0.0, 0.0)",-0.61279296875,0.81396484375,0.12744140625,"(0.0, 0.0, 0.0, 0.0, 0.0, 0.0, 0.0, 0.0, 0.0)"
2022/11/28/22:58:36.513912,2657,1669697916,513398170,RL_myo,0.6521549073717012,0.6449528222926314,-0.06005806540512438,-0.39385639843421505,"(0.0, 0.0, 0.0, 0.0, 0.0, 0.0, 0.0, 0.0, 0.0)",3.4375,-16.1875,7.5,"(0.0, 0.0, 0.0, 0.0, 0.0, 0.0, 0.0, 0.0, 0.0)",-0.67724609375,0.80029296875,0.09375,"(0.0, 0.0, 0.0, 0.0, 0.0, 0.0, 0.0, 0.0, 0.0)"
2022/11/28/22:58:36.528687,2658,1669697916,528227090,RL_myo,0.6501540689518397,0.6450880918843404,-0.0621345139122205,-0.3966110721037415,"(0.0, 0.0, 0.0, 0.0, 0.0, 0.0, 0.0, 0.0, 0.0)",9.875,-23.5,15.0,"(0.0, 0.0, 0.0, 0.0, 0.0, 0.0, 0.0, 0.0, 0.0)",-0.72900390625,0.7705078125,0.11279296875,"(0.0, 0.0, 0.0, 0.0, 0.0, 0.0, 0.0, 0.0, 0.0)"
2022/11/28/22:58:36.552077,2659,1669697916,551378726,RL_myo,0.6482474613617768,0.6446464256570085,-0.06695485030730339,-0.3996539287258182,"(0.0, 0.0, 0.0, 0.0, 0.0, 0.0, 0.0, 0.0, 0.0)",15.25,-34.9375,25.375,"(0.0, 0.0, 0.0, 0.0, 0.0, 0.0, 0.0, 0.0, 0.0)",-0.74267578125,0.77392578125,0.14013671875,"(0.0, 0.0, 0.0, 0.0, 0.0, 0.0, 0.0, 0.0, 0.0)"
2022/11/28/22:58:36.574058,2660,1669697916,573675870,RL_myo,0.6470608268546424,0.6430933753174712,-0.07452705118286183,-0.4027268498808537,"(0.0, 0.0, 0.0, 0.0, 0.0, 0.0, 0.0, 0.0, 0.0)",16.0625,-46.75,36.9375,"(0.0, 0.0, 0.0, 0.0, 0.0, 0.0, 0.0, 0.0, 0.0)",-0.7197265625,0.77001953125,0.162109375,"(0.0, 0.0, 0.0, 0.0, 0.0, 0.0, 0.0, 0.0, 0.0)"
2022/11/28/22:58:36.587536,2661,1669697916,587191343,RL_myo,0.6466810545423768,0.6405774107996455,-0.08520686664852836,-0.4052209080799282,"(0.0, 0.0, 0.0, 0.0, 0.0, 0.0, 0.0, 0.0, 0.0)",18.0,-57.75,51.625,"(0.0, 0.0, 0.0, 0.0, 0.0, 0.0, 0.0, 0.0, 0.0)",-0.69287109375,0.78173828125,0.185546875,"(0.0, 0.0, 0.0, 0.0, 0.0, 0.0, 0.0, 0.0, 0.0)"
2022/11/28/22:58:36.611567,2662,1669697916,611213922,RL_myo,0.6474688477332033,0.6367265289925319,-0.09936644835121183,-0.4068042864009993,"(0.0, 0.0, 0.0, 0.0, 0.0, 0.0, 0.0, 0.0, 0.0)",18.3125,-69.125,69.3125,"(0.0, 0.0, 0.0, 0.0, 0.0, 0.0, 0.0, 0.0, 0.0)",-0.64990234375,0.79345703125,0.20068359375,"(0.0, 0.0, 0.0, 0.0, 0.0, 0.0, 0.0, 0.0, 0.0)"
2022/11/28/22:58:36.634329,2663,1669697916,633976459,RL_myo,0.6498541176767029,0.6311159553655591,-0.11743395533107695,-0.4069294075843503,"(0.0, 0.0, 0.0, 0.0, 0.0, 0.0, 0.0, 0.0, 0.0)",16.0625,-80.4375,88.875,"(0.0, 0.0, 0.0, 0.0, 0.0, 0.0, 0.0, 0.0, 0.0)",-0.55078125,0.82763671875,0.21875,"(0.0, 0.0, 0.0, 0.0, 0.0, 0.0, 0.0, 0.0, 0.0)"
2022/11/28/22:58:36.648672,2664,1669697916,648264646,RL_myo,0.6549283799557226,0.6228228507985268,-0.13892050258893054,-0.4047982307424373,"(0.0, 0.0, 0.0, 0.0, 0.0, 0.0, 0.0, 0.0, 0.0)",3.75,-88.0,104.6875,"(0.0, 0.0, 0.0, 0.0, 0.0, 0.0, 0.0, 0.0, 0.0)",-0.3974609375,0.85693359375,0.26806640625,"(0.0, 0.0, 0.0, 0.0, 0.0, 0.0, 0.0, 0.0, 0.0)"
2022/11/28/22:58:36.671218,2665,1669697916,670751094,RL_myo,0.6613213835192919,0.6126149262928595,-0.16143932251117002,-0.4016146473056706,"(0.0, 0.0, 0.0, 0.0, 0.0, 0.0, 0.0, 0.0, 0.0)",-4.1875,-91.3125,116.0625,"(0.0, 0.0, 0.0, 0.0, 0.0, 0.0, 0.0, 0.0, 0.0)",-0.28759765625,0.78759765625,0.306640625,"(0.0, 0.0, 0.0, 0.0, 0.0, 0.0, 0.0, 0.0, 0.0)"
2022/11/28/22:58:36.694068,2666,1669697916,693729162,RL_myo,0.6662895318960735,0.6020776788771409,-0.18653177074701363,-0.3984553008627307,"(0.0, 0.0, 0.0, 0.0, 0.0, 0.0, 0.0, 0.0, 0.0)",6.4375,-102.9375,122.25,"(0.0, 0.0, 0.0, 0.0, 0.0, 0.0, 0.0, 0.0, 0.0)",-0.228515625,0.75146484375,0.3525390625,"(0.0, 0.0, 0.0, 0.0, 0.0, 0.0, 0.0, 0.0, 0.0)"
2022/11/28/22:58:36.714606,2667,1669697916,714135646,RL_myo,0.6689534241579378,0.5912547280855788,-0.21460221161855011,-0.3960619315110272,"(0.0, 0.0, 0.0, 0.0, 0.0, 0.0, 0.0, 0.0, 0.0)",18.8125,-120.3125,122.3125,"(0.0, 0.0, 0.0, 0.0, 0.0, 0.0, 0.0, 0.0, 0.0)",-0.07861328125,0.814453125,0.337890625,"(0.0, 0.0, 0.0, 0.0, 0.0, 0.0, 0.0, 0.0, 0.0)"
2022/11/28/22:58:36.731995,2668,1669697916,730786800,RL_myo,0.6721369523911315,0.5783844679311988,-0.2428042859255286,-0.393382006734548,"(0.0, 0.0, 0.0, 0.0, 0.0, 0.0, 0.0, 0.0, 0.0)",8.75,-122.9375,124.6875,"(0.0, 0.0, 0.0, 0.0, 0.0, 0.0, 0.0, 0.0, 0.0)",0.14501953125,0.8984375,0.30126953125,"(0.0, 0.0, 0.0, 0.0, 0.0, 0.0, 0.0, 0.0, 0.0)"
2022/11/28/22:58:36.753762,2669,1669697916,753465890,RL_myo,0.6767319742619662,0.5639941771606898,-0.2696673457463125,-0.38887520591891284,"(0.0, 0.0, 0.0, 0.0, 0.0, 0.0, 0.0, 0.0, 0.0)",-2.125,-113.25,130.75,"(0.0, 0.0, 0.0, 0.0, 0.0, 0.0, 0.0, 0.0, 0.0)",0.2861328125,0.88134765625,0.29248046875,"(0.0, 0.0, 0.0, 0.0, 0.0, 0.0, 0.0, 0.0, 0.0)"
2022/11/28/22:58:36.775095,2670,1669697916,774451017,RL_myo,0.6806967065439439,0.5497089794776505,-0.2949970572746486,-0.38399058293292243,"(0.0, 0.0, 0.0, 0.0, 0.0, 0.0, 0.0, 0.0, 0.0)",-2.875,-106.75,125.4375,"(0.0, 0.0, 0.0, 0.0, 0.0, 0.0, 0.0, 0.0, 0.0)",0.35009765625,0.8623046875,0.27197265625,"(0.0, 0.0, 0.0, 0.0, 0.0, 0.0, 0.0, 0.0, 0.0)"
2022/11/28/22:58:36.790963,2671,1669697916,790684461,RL_myo,0.6836418528091399,0.5363057727554604,-0.31682750271692217,-0.3803028644633292,"(0.0, 0.0, 0.0, 0.0, 0.0, 0.0, 0.0, 0.0, 0.0)",-7.9375,-96.75,106.5625,"(0.0, 0.0, 0.0, 0.0, 0.0, 0.0, 0.0, 0.0, 0.0)",0.36572265625,0.90234375,0.16748046875,"(0.0, 0.0, 0.0, 0.0, 0.0, 0.0, 0.0, 0.0, 0.0)"
2022/11/28/22:58:36.821626,2672,1669697916,820993423,RL_myo,0.6867758406546689,0.5228944744835183,-0.33752847483294696,-0.37549279876533265,"(0.0, 0.0, 0.0, 0.0, 0.0, 0.0, 0.0, 0.0, 0.0)",-14.5625,-84.9375,93.125,"(0.0, 0.0, 0.0, 0.0, 0.0, 0.0, 0.0, 0.0, 0.0)",0.3603515625,0.8583984375,0.10693359375,"(0.0, 0.0, 0.0, 0.0, 0.0, 0.0, 0.0, 0.0, 0.0)"
2022/11/28/22:58:36.834853,2673,1669697916,834351062,RL_myo,0.6883083856660093,0.5117908853249524,-0.3572465178064337,-0.36969795973920533,"(0.0, 0.0, 0.0, 0.0, 0.0, 0.0, 0.0, 0.0, 0.0)",-0.3125,-75.875,86.5625,"(0.0, 0.0, 0.0, 0.0, 0.0, 0.0, 0.0, 0.0, 0.0)",0.39306640625,0.8212890625,0.09814453125,"(0.0, 0.0, 0.0, 0.0, 0.0, 0.0, 0.0, 0.0, 0.0)"
2022/11/28/22:58:36.851552,2674,1669697916,850781917,RL_myo,0.6874886249919717,0.5035927419041867,-0.3754210344749306,-0.3644348881238515,"(0.0, 0.0, 0.0, 0.0, 0.0, 0.0, 0.0, 0.0, 0.0)",11.5625,-70.4375,70.875,"(0.0, 0.0, 0.0, 0.0, 0.0, 0.0, 0.0, 0.0, 0.0)",0.39794921875,0.88134765625,0.07763671875,"(0.0, 0.0, 0.0, 0.0, 0.0, 0.0, 0.0, 0.0, 0.0)"
2022/11/28/22:58:36.874113,2675,1669697916,873675584,RL_myo,0.6858595076644965,0.49756400342448837,-0.3909344261449765,-0.3594399431019151,"(0.0, 0.0, 0.0, 0.0, 0.0, 0.0, 0.0, 0.0, 0.0)",14.75,-58.25,61.0,"(0.0, 0.0, 0.0, 0.0, 0.0, 0.0, 0.0, 0.0, 0.0)",0.37548828125,0.99609375,0.064453125,"(0.0, 0.0, 0.0, 0.0, 0.0, 0.0, 0.0, 0.0, 0.0)"
2022/11/28/22:58:36.895078,2676,1669697916,894293308,RL_myo,0.6856840801351227,0.4918931815745909,-0.40253574047455354,-0.3547441582468696,"(0.0, 0.0, 0.0, 0.0, 0.0, 0.0, 0.0, 0.0, 0.0)",0.875,-39.8125,52.5625,"(0.0, 0.0, 0.0, 0.0, 0.0, 0.0, 0.0, 0.0, 0.0)",0.37646484375,0.99462890625,0.0302734375,"(0.0, 0.0, 0.0, 0.0, 0.0, 0.0, 0.0, 0.0, 0.0)"
2022/11/28/22:58:36.911670,2677,1669697916,911076784,RL_myo,0.6870788636227677,0.4862103782196826,-0.4100988615689239,-0.3511994120356583,"(0.0, 0.0, 0.0, 0.0, 0.0, 0.0, 0.0, 0.0, 0.0)",-12.3125,-23.5,39.375,"(0.0, 0.0, 0.0, 0.0, 0.0, 0.0, 0.0, 0.0, 0.0)",0.38623046875,0.9228515625,0.0390625,"(0.0, 0.0, 0.0, 0.0, 0.0, 0.0, 0.0, 0.0, 0.0)"
2022/11/28/22:58:36.934548,2678,1669697916,934214830,RL_myo,0.68775253276216,0.4830381207206012,-0.4155934500867543,-0.3477825640467508,"(0.0, 0.0, 0.0, 0.0, 0.0, 0.0, 0.0, 0.0, 0.0)",-4.125,-13.3125,28.625,"(0.0, 0.0, 0.0, 0.0, 0.0, 0.0, 0.0, 0.0, 0.0)",0.35546875,0.90478515625,0.044921875,"(0.0, 0.0, 0.0, 0.0, 0.0, 0.0, 0.0, 0.0, 0.0)"
2022/11/28/22:58:36.954947,2679,1669697916,954346895,RL_myo,0.6872667380403051,0.4824905474430383,-0.41980644975499276,-0.3444268386111405,"(0.0, 0.0, 0.0, 0.0, 0.0, 0.0, 0.0, 0.0, 0.0)",8.8125,-7.375,22.6875,"(0.0, 0.0, 0.0, 0.0, 0.0, 0.0, 0.0, 0.0, 0.0)",0.2822265625,0.94921875,0.0849609375,"(0.0, 0.0, 0.0, 0.0, 0.0, 0.0, 0.0, 0.0, 0.0)"
2022/11/28/22:58:36.971245,2680,1669697916,970873355,RL_myo,0.6863353693033177,0.4831508033263729,-0.4229095396978825,-0.3415502647062131,"(0.0, 0.0, 0.0, 0.0, 0.0, 0.0, 0.0, 0.0, 0.0)",13.3125,-3.5625,14.0625,"(0.0, 0.0, 0.0, 0.0, 0.0, 0.0, 0.0, 0.0, 0.0)",0.28125,0.93896484375,0.09716796875,"(0.0, 0.0, 0.0, 0.0, 0.0, 0.0, 0.0, 0.0, 0.0)"
2022/11/28/22:58:36.994119,2681,1669697916,993698835,RL_myo,0.6832259419419711,0.48651009319451954,-0.4270619899739121,-0.33782880012942734,"(0.0, 0.0, 0.0, 0.0, 0.0, 0.0, 0.0, 0.0, 0.0)",32.0,-4.25,7.5,"(0.0, 0.0, 0.0, 0.0, 0.0, 0.0, 0.0, 0.0, 0.0)",0.353515625,1.07958984375,0.0791015625,"(0.0, 0.0, 0.0, 0.0, 0.0, 0.0, 0.0, 0.0, 0.0)"
2022/11/28/22:58:37.014337,2682,1669697917,13992547,RL_myo,0.6813377196252556,0.4902970439621677,-0.42743062353629535,-0.3356944780022311,"(0.0, 0.0, 0.0, 0.0, 0.0, 0.0, 0.0, 0.0, 0.0)",20.125,8.4375,-1.625,"(0.0, 0.0, 0.0, 0.0, 0.0, 0.0, 0.0, 0.0, 0.0)",0.28125,1.17041015625,0.10400390625,"(0.0, 0.0, 0.0, 0.0, 0.0, 0.0, 0.0, 0.0, 0.0)"
2022/11/28/22:58:37.031999,2683,1669697917,31124830,RL_myo,0.6829217997673294,0.4891963736826477,-0.42553675824272236,-0.33648653875389106,"(0.0, 0.0, 0.0, 0.0, 0.0, 0.0, 0.0, 0.0, 0.0)",-17.4375,7.25,0.5625,"(0.0, 0.0, 0.0, 0.0, 0.0, 0.0, 0.0, 0.0, 0.0)",0.2333984375,1.07080078125,0.13037109375,"(0.0, 0.0, 0.0, 0.0, 0.0, 0.0, 0.0, 0.0, 0.0)"
2022/11/28/22:58:37.054126,2684,1669697917,53824424,RL_myo,0.6842893708947955,0.4871388341014506,-0.42481973253302796,-0.3375974052643933,"(0.0, 0.0, 0.0, 0.0, 0.0, 0.0, 0.0, 0.0, 0.0)",-16.0625,-1.0625,1.6875,"(0.0, 0.0, 0.0, 0.0, 0.0, 0.0, 0.0, 0.0, 0.0)",0.24853515625,0.953125,0.1630859375,"(0.0, 0.0, 0.0, 0.0, 0.0, 0.0, 0.0, 0.0, 0.0)"
2022/11/28/22:58:37.074429,2685,1669697917,74110269,RL_myo,0.6842163899423083,0.4865810045156183,-0.42548371581514993,-0.33771358479489666,"(0.0, 0.0, 0.0, 0.0, 0.0, 0.0, 0.0, 0.0, 0.0)",1.5,-4.5625,1.0,"(0.0, 0.0, 0.0, 0.0, 0.0, 0.0, 0.0, 0.0, 0.0)",0.265625,0.921875,0.19775390625,"(0.0, 0.0, 0.0, 0.0, 0.0, 0.0, 0.0, 0.0, 0.0)"
2022/11/28/22:58:37.091295,2686,1669697917,90867519,RL_myo,0.6839671348019208,0.486455297552321,-0.42602985908597246,-0.33771106165081455,"(0.0, 0.0, 0.0, 0.0, 0.0, 0.0, 0.0, 0.0, 0.0)",2.1875,-3.0625,-0.125,"(0.0, 0.0, 0.0, 0.0, 0.0, 0.0, 0.0, 0.0, 0.0)",0.287109375,0.9794921875,0.18359375,"(0.0, 0.0, 0.0, 0.0, 0.0, 0.0, 0.0, 0.0, 0.0)"
2022/11/28/22:58:37.114001,2687,1669697917,113614082,RL_myo,0.6845181731774054,0.4857851217404342,-0.42590885532161704,-0.3377119083540423,"(0.0, 0.0, 0.0, 0.0, 0.0, 0.0, 0.0, 0.0, 0.0)",-2.1875,0.0625,0.875,"(0.0, 0.0, 0.0, 0.0, 0.0, 0.0, 0.0, 0.0, 0.0)",0.2685546875,0.94140625,0.1953125,"(0.0, 0.0, 0.0, 0.0, 0.0, 0.0, 0.0, 0.0, 0.0)"
2022/11/28/22:58:37.134577,2688,1669697917,134081363,RL_myo,0.6852074464299939,0.4852484588560887,-0.4250654424495348,-0.33814798264940016,"(0.0, 0.0, 0.0, 0.0, 0.0, 0.0, 0.0, 0.0, 0.0)",-3.8125,1.875,-0.875,"(0.0, 0.0, 0.0, 0.0, 0.0, 0.0, 0.0, 0.0, 0.0)",0.2392578125,0.916015625,0.20361328125,"(0.0, 0.0, 0.0, 0.0, 0.0, 0.0, 0.0, 0.0, 0.0)"
2022/11/28/22:58:37.152425,2689,1669697917,151968479,RL_myo,0.685359343638323,0.485531532517843,-0.4245578051783929,-0.3380715472804943,"(0.0, 0.0, 0.0, 0.0, 0.0, 0.0, 0.0, 0.0, 0.0)",2.0,2.6875,-2.0,"(0.0, 0.0, 0.0, 0.0, 0.0, 0.0, 0.0, 0.0, 0.0)",0.2470703125,0.89599609375,0.1904296875,"(0.0, 0.0, 0.0, 0.0, 0.0, 0.0, 0.0, 0.0, 0.0)"
2022/11/28/22:58:37.173514,2690,1669697917,173161983,RL_myo,0.6853668652817643,0.4862692862854943,-0.42413521656808084,-0.3375259386417451,"(0.0, 0.0, 0.0, 0.0, 0.0, 0.0, 0.0, 0.0, 0.0)",6.0625,4.0625,-2.0,"(0.0, 0.0, 0.0, 0.0, 0.0, 0.0, 0.0, 0.0, 0.0)",0.255859375,0.912109375,0.19775390625,"(0.0, 0.0, 0.0, 0.0, 0.0, 0.0, 0.0, 0.0, 0.0)"
2022/11/28/22:58:37.195204,2691,1669697917,194449424,RL_myo,0.6853832217535911,0.4868912601236438,-0.42329082223360537,-0.33765606756976274,"(0.0, 0.0, 0.0, 0.0, 0.0, 0.0, 0.0, 0.0, 0.0)",2.875,2.9375,-1.9375,"(0.0, 0.0, 0.0, 0.0, 0.0, 0.0, 0.0, 0.0, 0.0)",0.21728515625,0.95166015625,0.2080078125,"(0.0, 0.0, 0.0, 0.0, 0.0, 0.0, 0.0, 0.0, 0.0)"
2022/11/28/22:58:37.218193,2692,1669697917,217287778,RL_myo,0.6854395319334067,0.4868268661354275,-0.42322686682335187,-0.33771477561776836,"(0.0, 0.0, 0.0, 0.0, 0.0, 0.0, 0.0, 0.0, 0.0)",-0.625,0.25,-0.4375,"(0.0, 0.0, 0.0, 0.0, 0.0, 0.0, 0.0, 0.0, 0.0)",0.2412109375,0.9365234375,0.19287109375,"(0.0, 0.0, 0.0, 0.0, 0.0, 0.0, 0.0, 0.0, 0.0)"
2022/11/28/22:58:37.233555,2693,1669697917,233259439,RL_myo,0.6859107095902602,0.4863264401152512,-0.4230942373091016,-0.3376453145980886,"(0.0, 0.0, 0.0, 0.0, 0.0, 0.0, 0.0, 0.0, 0.0)",-1.625,0.625,0.5,"(0.0, 0.0, 0.0, 0.0, 0.0, 0.0, 0.0, 0.0, 0.0)",0.265625,0.921875,0.19189453125,"(0.0, 0.0, 0.0, 0.0, 0.0, 0.0, 0.0, 0.0, 0.0)"
2022/11/28/22:58:37.254611,2694,1669697917,254157543,RL_myo,0.6866576008587824,0.4857263277897058,-0.42261486474188525,-0.33759139469777116,"(0.0, 0.0, 0.0, 0.0, 0.0, 0.0, 0.0, 0.0, 0.0)",-2.875,2.3125,0.5625,"(0.0, 0.0, 0.0, 0.0, 0.0, 0.0, 0.0, 0.0, 0.0)",0.26318359375,0.9267578125,0.20166015625,"(0.0, 0.0, 0.0, 0.0, 0.0, 0.0, 0.0, 0.0, 0.0)"
2022/11/28/22:58:37.270894,2695,1669697917,270632743,RL_myo,0.6875211943893756,0.4851223768649465,-0.42170489453446347,-0.3378400045228333,"(0.0, 0.0, 0.0, 0.0, 0.0, 0.0, 0.0, 0.0, 0.0)",-4.75,2.75,0.0625,"(0.0, 0.0, 0.0, 0.0, 0.0, 0.0, 0.0, 0.0, 0.0)",0.23828125,0.94091796875,0.20703125,"(0.0, 0.0, 0.0, 0.0, 0.0, 0.0, 0.0, 0.0, 0.0)"
2022/11/28/22:58:37.293921,2696,1669697917,293286085,RL_myo,0.6881369831017498,0.48445478400555153,-0.4209757648086543,-0.3384530398526878,"(0.0, 0.0, 0.0, 0.0, 0.0, 0.0, 0.0, 0.0, 0.0)",-5.4375,0.625,-0.5,"(0.0, 0.0, 0.0, 0.0, 0.0, 0.0, 0.0, 0.0, 0.0)",0.23291015625,0.94091796875,0.20361328125,"(0.0, 0.0, 0.0, 0.0, 0.0, 0.0, 0.0, 0.0, 0.0)"
2022/11/28/22:58:37.314899,2697,1669697917,314343929,RL_myo,0.6889220792849281,0.4832891843517374,-0.42054337966449495,-0.3390592850560623,"(0.0, 0.0, 0.0, 0.0, 0.0, 0.0, 0.0, 0.0, 0.0)",-8.1875,-0.25,-0.6875,"(0.0, 0.0, 0.0, 0.0, 0.0, 0.0, 0.0, 0.0, 0.0)",0.2626953125,0.923828125,0.18603515625,"(0.0, 0.0, 0.0, 0.0, 0.0, 0.0, 0.0, 0.0, 0.0)"
2022/11/28/22:58:37.331702,2698,1669697917,331236362,RL_myo,0.6899454556862092,0.48205849336603684,-0.41974123308156946,-0.339723673597792,"(0.0, 0.0, 0.0, 0.0, 0.0, 0.0, 0.0, 0.0, 0.0)",-9.25,0.875,0.125,"(0.0, 0.0, 0.0, 0.0, 0.0, 0.0, 0.0, 0.0, 0.0)",0.24560546875,0.931640625,0.20068359375,"(0.0, 0.0, 0.0, 0.0, 0.0, 0.0, 0.0, 0.0, 0.0)"
2022/11/28/22:58:37.353689,2699,1669697917,353355169,RL_myo,0.6908037938108704,0.48108460000152686,-0.41895010078793204,-0.3403359210363504,"(0.0, 0.0, 0.0, 0.0, 0.0, 0.0, 0.0, 0.0, 0.0)",-7.625,1.3125,-0.375,"(0.0, 0.0, 0.0, 0.0, 0.0, 0.0, 0.0, 0.0, 0.0)",0.244140625,0.91796875,0.205078125,"(0.0, 0.0, 0.0, 0.0, 0.0, 0.0, 0.0, 0.0, 0.0)"
2022/11/28/22:58:37.375193,2700,1669697917,374378681,RL_myo,0.6915554139203512,0.4801823867000356,-0.41829031346832896,-0.34089470315491277,"(0.0, 0.0, 0.0, 0.0, 0.0, 0.0, 0.0, 0.0, 0.0)",-7.9375,1.25,-2.4375,"(0.0, 0.0, 0.0, 0.0, 0.0, 0.0, 0.0, 0.0, 0.0)",0.267578125,0.91357421875,0.1845703125,"(0.0, 0.0, 0.0, 0.0, 0.0, 0.0, 0.0, 0.0, 0.0)"
2022/11/28/22:58:37.391752,2701,1669697917,390939950,RL_myo,0.6922182662846477,0.4793219332627932,-0.4177358094041203,-0.3414398184989259,"(0.0, 0.0, 0.0, 0.0, 0.0, 0.0, 0.0, 0.0, 0.0)",-8.5625,1.4375,-2.375,"(0.0, 0.0, 0.0, 0.0, 0.0, 0.0, 0.0, 0.0, 0.0)",0.275390625,0.9296875,0.17578125,"(0.0, 0.0, 0.0, 0.0, 0.0, 0.0, 0.0, 0.0, 0.0)"
2022/11/28/22:58:37.414298,2702,1669697917,413770437,RL_myo,0.6932920031839745,0.4780840092384957,-0.4166832032517822,-0.3422820278066493,"(0.0, 0.0, 0.0, 0.0, 0.0, 0.0, 0.0, 0.0, 0.0)",-14.375,2.3125,-1.3125,"(0.0, 0.0, 0.0, 0.0, 0.0, 0.0, 0.0, 0.0, 0.0)",0.25390625,0.95068359375,0.15966796875,"(0.0, 0.0, 0.0, 0.0, 0.0, 0.0, 0.0, 0.0, 0.0)"
2022/11/28/22:58:37.436850,2703,1669697917,436309576,RL_myo,0.6941562209052893,0.47674793295447243,-0.4160176560002156,-0.3432023591093328,"(0.0, 0.0, 0.0, 0.0, 0.0, 0.0, 0.0, 0.0, 0.0)",-16.125,1.8125,-4.625,"(0.0, 0.0, 0.0, 0.0, 0.0, 0.0, 0.0, 0.0, 0.0)",0.30615234375,0.947265625,0.1240234375,"(0.0, 0.0, 0.0, 0.0, 0.0, 0.0, 0.0, 0.0, 0.0)"
2022/11/28/22:58:37.451039,2704,1669697917,450578212,RL_myo,0.6943317136159557,0.476132357411926,-0.4155248159544151,-0.34429722191522555,"(0.0, 0.0, 0.0, 0.0, 0.0, 0.0, 0.0, 0.0, 0.0)",-14.875,1.25,-7.9375,"(0.0, 0.0, 0.0, 0.0, 0.0, 0.0, 0.0, 0.0, 0.0)",0.32373046875,0.9892578125,0.087890625,"(0.0, 0.0, 0.0, 0.0, 0.0, 0.0, 0.0, 0.0, 0.0)"
2022/11/28/22:58:37.474100,2705,1669697917,473316192,RL_myo,0.6935803507936827,0.4765274838199667,-0.41463445594838394,-0.3463323867291522,"(0.0, 0.0, 0.0, 0.0, 0.0, 0.0, 0.0, 0.0, 0.0)",-14.25,0.25,-15.25,"(0.0, 0.0, 0.0, 0.0, 0.0, 0.0, 0.0, 0.0, 0.0)",0.29736328125,1.02587890625,0.04833984375,"(0.0, 0.0, 0.0, 0.0, 0.0, 0.0, 0.0, 0.0, 0.0)"
2022/11/28/22:58:37.497055,2706,1669697917,496772766,RL_myo,0.693289272030012,0.4760679920621616,-0.4122260536394666,-0.3503982490293423,"(0.0, 0.0, 0.0, 0.0, 0.0, 0.0, 0.0, 0.0, 0.0)",-33.125,2.0625,-26.125,"(0.0, 0.0, 0.0, 0.0, 0.0, 0.0, 0.0, 0.0, 0.0)",0.31591796875,1.0380859375,-0.037109375,"(0.0, 0.0, 0.0, 0.0, 0.0, 0.0, 0.0, 0.0, 0.0)"
2022/11/28/22:58:37.510395,2707,1669697917,510056257,RL_myo,0.6937264788249607,0.4747320563347303,-0.4081426151594679,-0.35607955986845163,"(0.0, 0.0, 0.0, 0.0, 0.0, 0.0, 0.0, 0.0, 0.0)",-50.375,6.4375,-37.25,"(0.0, 0.0, 0.0, 0.0, 0.0, 0.0, 0.0, 0.0, 0.0)",0.3525390625,0.99365234375,-0.10546875,"(0.0, 0.0, 0.0, 0.0, 0.0, 0.0, 0.0, 0.0, 0.0)"
2022/11/28/22:58:37.533858,2708,1669697917,533444166,RL_myo,0.6936080296977272,0.47430728605957745,-0.4028346529395459,-0.36285636541296973,"(0.0, 0.0, 0.0, 0.0, 0.0, 0.0, 0.0, 0.0, 0.0)",-54.375,10.0,-51.1875,"(0.0, 0.0, 0.0, 0.0, 0.0, 0.0, 0.0, 0.0, 0.0)",0.3779296875,0.9775390625,-0.16064453125,"(0.0, 0.0, 0.0, 0.0, 0.0, 0.0, 0.0, 0.0, 0.0)"
2022/11/28/22:58:37.557225,2709,1669697917,556497335,RL_myo,0.6914097078884168,0.4762597060958083,-0.3971577479899301,-0.37066835769830114,"(0.0, 0.0, 0.0, 0.0, 0.0, 0.0, 0.0, 0.0, 0.0)",-42.375,7.5,-63.5625,"(0.0, 0.0, 0.0, 0.0, 0.0, 0.0, 0.0, 0.0, 0.0)",0.32470703125,1.00830078125,-0.15087890625,"(0.0, 0.0, 0.0, 0.0, 0.0, 0.0, 0.0, 0.0, 0.0)"
2022/11/28/22:58:37.576932,2710,1669697917,576467752,RL_myo,0.6876261048551364,0.47839636160612103,-0.3911766115761201,-0.38116678721998287,"(0.0, 0.0, 0.0, 0.0, 0.0, 0.0, 0.0, 0.0, 0.0)",-42.5,-2.875,-75.0625,"(0.0, 0.0, 0.0, 0.0, 0.0, 0.0, 0.0, 0.0, 0.0)",0.2509765625,1.03564453125,-0.1103515625,"(0.0, 0.0, 0.0, 0.0, 0.0, 0.0, 0.0, 0.0, 0.0)"
2022/11/28/22:58:37.594568,2711,1669697917,593763351,RL_myo,0.6828723967145309,0.4799272126712868,-0.38580947619168304,-0.393072777515336,"(0.0, 0.0, 0.0, 0.0, 0.0, 0.0, 0.0, 0.0, 0.0)",-44.1875,-12.75,-83.75,"(0.0, 0.0, 0.0, 0.0, 0.0, 0.0, 0.0, 0.0, 0.0)",0.27685546875,0.994140625,-0.119140625,"(0.0, 0.0, 0.0, 0.0, 0.0, 0.0, 0.0, 0.0, 0.0)"
2022/11/28/22:58:37.622885,2712,1669697917,621849060,RL_myo,0.6772552635554945,0.4810245793151453,-0.3821462874117656,-0.40485167295994906,"(0.0, 0.0, 0.0, 0.0, 0.0, 0.0, 0.0, 0.0, 0.0)",-37.3125,-21.0625,-85.375,"(0.0, 0.0, 0.0, 0.0, 0.0, 0.0, 0.0, 0.0, 0.0)",0.3291015625,0.93896484375,-0.10107421875,"(0.0, 0.0, 0.0, 0.0, 0.0, 0.0, 0.0, 0.0, 0.0)"
2022/11/28/22:58:37.638404,2713,1669697917,636862516,RL_myo,0.670307025370963,0.48237446926850486,-0.3799545832211113,-0.41669878548602846,"(0.0, 0.0, 0.0, 0.0, 0.0, 0.0, 0.0, 0.0, 0.0)",-23.0625,-30.1875,-88.1875,"(0.0, 0.0, 0.0, 0.0, 0.0, 0.0, 0.0, 0.0, 0.0)",0.34912109375,0.89404296875,-0.01953125,"(0.0, 0.0, 0.0, 0.0, 0.0, 0.0, 0.0, 0.0, 0.0)"
2022/11/28/22:58:37.654004,2714,1669697917,653611660,RL_myo,0.6614573898208845,0.48402298618433276,-0.37916151200215326,-0.4294559559638039,"(0.0, 0.0, 0.0, 0.0, 0.0, 0.0, 0.0, 0.0, 0.0)",-10.125,-42.0625,-93.375,"(0.0, 0.0, 0.0, 0.0, 0.0, 0.0, 0.0, 0.0, 0.0)",0.3310546875,0.84521484375,0.04541015625,"(0.0, 0.0, 0.0, 0.0, 0.0, 0.0, 0.0, 0.0, 0.0)"
2022/11/28/22:58:37.677022,2715,1669697917,676159143,RL_myo,0.6508970959961108,0.4851209788988267,-0.3804427606286345,-0.44300554414288934,"(0.0, 0.0, 0.0, 0.0, 0.0, 0.0, 0.0, 0.0, 0.0)",1.375,-57.8125,-93.5,"(0.0, 0.0, 0.0, 0.0, 0.0, 0.0, 0.0, 0.0, 0.0)",0.3095703125,0.82568359375,0.1142578125,"(0.0, 0.0, 0.0, 0.0, 0.0, 0.0, 0.0, 0.0, 0.0)"
2022/11/28/22:58:37.697481,2716,1669697917,696883201,RL_myo,0.6384939381962399,0.48572170539773224,-0.38495184668804944,-0.45630252193433607,"(0.0, 0.0, 0.0, 0.0, 0.0, 0.0, 0.0, 0.0, 0.0)",17.25,-75.375,-86.4375,"(0.0, 0.0, 0.0, 0.0, 0.0, 0.0, 0.0, 0.0, 0.0)",0.28076171875,0.7861328125,0.15625,"(0.0, 0.0, 0.0, 0.0, 0.0, 0.0, 0.0, 0.0, 0.0)"
2022/11/28/22:58:37.714069,2717,1669697917,713632583,RL_myo,0.6251987219221342,0.4838377690790548,-0.3917334176800017,-0.47071488269681727,"(0.0, 0.0, 0.0, 0.0, 0.0, 0.0, 0.0, 0.0, 0.0)",15.875,-95.8125,-78.125,"(0.0, 0.0, 0.0, 0.0, 0.0, 0.0, 0.0, 0.0, 0.0)",0.22802734375,0.787109375,0.17626953125,"(0.0, 0.0, 0.0, 0.0, 0.0, 0.0, 0.0, 0.0, 0.0)"
2022/11/28/22:58:37.736679,2718,1669697917,735999584,RL_myo,0.6117581070112054,0.4787008713248412,-0.4000262030680874,-0.4863913354057962,"(0.0, 0.0, 0.0, 0.0, 0.0, 0.0, 0.0, 0.0, 0.0)",7.75,-116.6875,-61.0625,"(0.0, 0.0, 0.0, 0.0, 0.0, 0.0, 0.0, 0.0, 0.0)",0.20166015625,0.74462890625,0.26318359375,"(0.0, 0.0, 0.0, 0.0, 0.0, 0.0, 0.0, 0.0, 0.0)"
2022/11/28/22:58:37.757499,2719,1669697917,756744623,RL_myo,0.5982696571565962,0.4693627487792517,-0.4115621606005844,-0.5023829369573499,"(0.0, 0.0, 0.0, 0.0, 0.0, 0.0, 0.0, 0.0, 0.0)",2.375,-140.9375,-42.5625,"(0.0, 0.0, 0.0, 0.0, 0.0, 0.0, 0.0, 0.0, 0.0)",0.13037109375,0.712890625,0.32275390625,"(0.0, 0.0, 0.0, 0.0, 0.0, 0.0, 0.0, 0.0, 0.0)"
2022/11/28/22:58:37.773582,2720,1669697917,773266315,RL_myo,0.5857594723559926,0.45349514219079134,-0.42468629870303176,-0.5204512890256902,"(0.0, 0.0, 0.0, 0.0, 0.0, 0.0, 0.0, 0.0, 0.0)",-21.4375,-168.25,-27.375,"(0.0, 0.0, 0.0, 0.0, 0.0, 0.0, 0.0, 0.0, 0.0)",0.1484375,0.6572265625,0.39111328125,"(0.0, 0.0, 0.0, 0.0, 0.0, 0.0, 0.0, 0.0, 0.0)"
2022/11/28/22:58:37.796587,2721,1669697917,796108722,RL_myo,0.5744605879546932,0.432859593048734,-0.4395734333244476,-0.5379617108194503,"(0.0, 0.0, 0.0, 0.0, 0.0, 0.0, 0.0, 0.0, 0.0)",-33.8125,-184.0625,-7.5,"(0.0, 0.0, 0.0, 0.0, 0.0, 0.0, 0.0, 0.0, 0.0)",0.271484375,0.6142578125,0.40185546875,"(0.0, 0.0, 0.0, 0.0, 0.0, 0.0, 0.0, 0.0, 0.0)"
2022/11/28/22:58:37.817394,2722,1669697917,816801309,RL_myo,0.5634334852248557,0.4106576198237275,-0.45838863330502283,-0.5511650277955201,"(0.0, 0.0, 0.0, 0.0, 0.0, 0.0, 0.0, 0.0, 0.0)",-15.875,-190.5625,22.125,"(0.0, 0.0, 0.0, 0.0, 0.0, 0.0, 0.0, 0.0, 0.0)",0.22705078125,0.51318359375,0.43505859375,"(0.0, 0.0, 0.0, 0.0, 0.0, 0.0, 0.0, 0.0, 0.0)"
2022/11/28/22:58:37.833652,2723,1669697917,833278417,RL_myo,0.5522900863574987,0.3870119833785942,-0.4815525230810768,-0.5597361456497536,"(0.0, 0.0, 0.0, 0.0, 0.0, 0.0, 0.0, 0.0, 0.0)",6.5,-199.5,53.0,"(0.0, 0.0, 0.0, 0.0, 0.0, 0.0, 0.0, 0.0, 0.0)",0.091796875,0.47216796875,0.47802734375,"(0.0, 0.0, 0.0, 0.0, 0.0, 0.0, 0.0, 0.0, 0.0)"
2022/11/28/22:58:37.857045,2724,1669697917,856575727,RL_myo,0.5409534552824647,0.3598014914690432,-0.5085438552875433,-0.565062291436879,"(0.0, 0.0, 0.0, 0.0, 0.0, 0.0, 0.0, 0.0, 0.0)",20.1875,-216.6875,80.625,"(0.0, 0.0, 0.0, 0.0, 0.0, 0.0, 0.0, 0.0, 0.0)",0.158203125,0.416015625,0.64892578125,"(0.0, 0.0, 0.0, 0.0, 0.0, 0.0, 0.0, 0.0, 0.0)"
2022/11/28/22:58:37.877392,2725,1669697917,876853227,RL_myo,0.5325990898134432,0.32861717849594063,-0.5383974984236056,-0.564337747469069,"(0.0, 0.0, 0.0, 0.0, 0.0, 0.0, 0.0, 0.0, 0.0)",29.4375,-217.3125,122.125,"(0.0, 0.0, 0.0, 0.0, 0.0, 0.0, 0.0, 0.0, 0.0)",0.4345703125,0.43115234375,0.67822265625,"(0.0, 0.0, 0.0, 0.0, 0.0, 0.0, 0.0, 0.0, 0.0)"
2022/11/28/22:58:37.893703,2726,1669697917,893383264,RL_myo,0.5303857215633858,0.29375678686819057,-0.5689592285861775,-0.555592775994419,"(0.0, 0.0, 0.0, 0.0, 0.0, 0.0, 0.0, 0.0, 0.0)",33.625,-197.6875,177.625,"(0.0, 0.0, 0.0, 0.0, 0.0, 0.0, 0.0, 0.0, 0.0)",0.57080078125,0.32373046875,0.66064453125,"(0.0, 0.0, 0.0, 0.0, 0.0, 0.0, 0.0, 0.0, 0.0)"
2022/11/28/22:58:37.916975,2727,1669697917,916674375,RL_myo,0.5295404839847655,0.2604367502493078,-0.6041864051366059,-0.5354608881971354,"(0.0, 0.0, 0.0, 0.0, 0.0, 0.0, 0.0, 0.0, 0.0)",87.8125,-184.3125,220.75,"(0.0, 0.0, 0.0, 0.0, 0.0, 0.0, 0.0, 0.0, 0.0)",0.48046875,0.23291015625,0.63671875,"(0.0, 0.0, 0.0, 0.0, 0.0, 0.0, 0.0, 0.0, 0.0)"
2022/11/28/22:58:37.937118,2728,1669697917,936709165,RL_myo,0.5262996548924964,0.2297945263446885,-0.643241570556885,-0.506402439596781,"(0.0, 0.0, 0.0, 0.0, 0.0, 0.0, 0.0, 0.0, 0.0)",143.375,-184.625,232.9375,"(0.0, 0.0, 0.0, 0.0, 0.0, 0.0, 0.0, 0.0, 0.0)",0.75732421875,0.18798828125,0.67822265625,"(0.0, 0.0, 0.0, 0.0, 0.0, 0.0, 0.0, 0.0, 0.0)"
2022/11/28/22:58:37.953932,2729,1669697917,953331947,RL_myo,0.5224738829465437,0.20575460974448587,-0.6822068445903644,-0.46827332125769666,"(0.0, 0.0, 0.0, 0.0, 0.0, 0.0, 0.0, 0.0, 0.0)",196.5625,-156.625,229.8125,"(0.0, 0.0, 0.0, 0.0, 0.0, 0.0, 0.0, 0.0, 0.0)",1.08837890625,0.1767578125,0.650390625,"(0.0, 0.0, 0.0, 0.0, 0.0, 0.0, 0.0, 0.0, 0.0)"
2022/11/28/22:58:37.976273,2730,1669697917,975890636,RL_myo,0.5197609434188115,0.18841029031633055,-0.7180586542182148,-0.42277877584101775,"(0.0, 0.0, 0.0, 0.0, 0.0, 0.0, 0.0, 0.0, 0.0)",234.6875,-117.9375,229.25,"(0.0, 0.0, 0.0, 0.0, 0.0, 0.0, 0.0, 0.0, 0.0)",1.05224609375,0.443359375,0.55029296875,"(0.0, 0.0, 0.0, 0.0, 0.0, 0.0, 0.0, 0.0, 0.0)"
2022/11/28/22:58:37.997679,2731,1669697917,996990203,RL_myo,0.5203046510047711,0.1708308173797483,-0.7478959757668581,-0.3751686439561675,"(0.0, 0.0, 0.0, 0.0, 0.0, 0.0, 0.0, 0.0, 0.0)",223.0,-85.25,241.125,"(0.0, 0.0, 0.0, 0.0, 0.0, 0.0, 0.0, 0.0, 0.0)",1.0244140625,0.5869140625,0.42724609375,"(0.0, 0.0, 0.0, 0.0, 0.0, 0.0, 0.0, 0.0, 0.0)"
2022/11/28/22:58:38.013926,2732,1669697918,13340950,RL_myo,0.5224562605590567,0.15539411675039233,-0.7711722958135142,-0.32891551263466784,"(0.0, 0.0, 0.0, 0.0, 0.0, 0.0, 0.0, 0.0, 0.0)",205.625,-55.0625,224.5,"(0.0, 0.0, 0.0, 0.0, 0.0, 0.0, 0.0, 0.0, 0.0)",1.1923828125,0.541015625,0.21435546875,"(0.0, 0.0, 0.0, 0.0, 0.0, 0.0, 0.0, 0.0, 0.0)"
2022/11/28/22:58:38.036707,2733,1669697918,36477327,RL_myo,0.526366139417807,0.14562959283985244,-0.7880843682934513,-0.283996016548128,"(0.0, 0.0, 0.0, 0.0, 0.0, 0.0, 0.0, 0.0, 0.0)",201.3125,-18.3125,195.125,"(0.0, 0.0, 0.0, 0.0, 0.0, 0.0, 0.0, 0.0, 0.0)",1.18798828125,0.58056640625,0.0439453125,"(0.0, 0.0, 0.0, 0.0, 0.0, 0.0, 0.0, 0.0, 0.0)"
2022/11/28/22:58:38.057418,2734,1669697918,56868076,RL_myo,0.5313772438510781,0.14257951316748432,-0.799324188545109,-0.24164053622862605,"(0.0, 0.0, 0.0, 0.0, 0.0, 0.0, 0.0, 0.0, 0.0)",200.9375,14.625,162.125,"(0.0, 0.0, 0.0, 0.0, 0.0, 0.0, 0.0, 0.0, 0.0)",1.02783203125,0.93017578125,-0.0791015625,"(0.0, 0.0, 0.0, 0.0, 0.0, 0.0, 0.0, 0.0, 0.0)"
2022/11/28/22:58:38.073866,2735,1669697918,73147058,RL_myo,0.540393700114955,0.1406830222232857,-0.8030833867305827,-0.20794232395433157,"(0.0, 0.0, 0.0, 0.0, 0.0, 0.0, 0.0, 0.0, 0.0)",152.25,49.25,132.4375,"(0.0, 0.0, 0.0, 0.0, 0.0, 0.0, 0.0, 0.0, 0.0)",1.07080078125,1.04736328125,-0.04833984375,"(0.0, 0.0, 0.0, 0.0, 0.0, 0.0, 0.0, 0.0, 0.0)"
2022/11/28/22:58:38.096924,2736,1669697918,96432209,RL_myo,0.5535248101189921,0.13330005351195048,-0.8015703309397645,-0.18255515570249262,"(0.0, 0.0, 0.0, 0.0, 0.0, 0.0, 0.0, 0.0, 0.0)",86.25,71.5,131.1875,"(0.0, 0.0, 0.0, 0.0, 0.0, 0.0, 0.0, 0.0, 0.0)",1.10009765625,0.89306640625,-0.04345703125,"(0.0, 0.0, 0.0, 0.0, 0.0, 0.0, 0.0, 0.0, 0.0)"
2022/11/28/22:58:38.117977,2737,1669697918,117014169,RL_myo,0.5691311525562375,0.12237082690351271,-0.7964174165904925,-0.16381211940599907,"(0.0, 0.0, 0.0, 0.0, 0.0, 0.0, 0.0, 0.0, 0.0)",37.25,87.25,125.375,"(0.0, 0.0, 0.0, 0.0, 0.0, 0.0, 0.0, 0.0, 0.0)",1.22802734375,0.7978515625,-0.1787109375,"(0.0, 0.0, 0.0, 0.0, 0.0, 0.0, 0.0, 0.0, 0.0)"
2022/11/28/22:58:38.133497,2738,1669697918,133142471,RL_myo,0.5845917451975553,0.11993347038141533,-0.7899739985479179,-0.14074635251885179,"(0.0, 0.0, 0.0, 0.0, 0.0, 0.0, 0.0, 0.0, 0.0)",81.75,106.25,101.4375,"(0.0, 0.0, 0.0, 0.0, 0.0, 0.0, 0.0, 0.0, 0.0)",1.126953125,0.775390625,-0.41455078125,"(0.0, 0.0, 0.0, 0.0, 0.0, 0.0, 0.0, 0.0, 0.0)"
2022/11/28/22:58:38.156188,2739,1669697918,155771493,RL_myo,0.5970498608345411,0.12542807851308344,-0.7836966073518205,-0.11669999324428978,"(0.0, 0.0, 0.0, 0.0, 0.0, 0.0, 0.0, 0.0, 0.0)",115.0,99.5625,68.0,"(0.0, 0.0, 0.0, 0.0, 0.0, 0.0, 0.0, 0.0, 0.0)",1.09033203125,0.81689453125,-0.38623046875,"(0.0, 0.0, 0.0, 0.0, 0.0, 0.0, 0.0, 0.0, 0.0)"
2022/11/28/22:58:38.177563,2740,1669697918,176853418,RL_myo,0.6096736506260003,0.1294541808967611,-0.7762368093564394,-0.09484761768673587,"(0.0, 0.0, 0.0, 0.0, 0.0, 0.0, 0.0, 0.0, 0.0)",99.4375,101.5625,67.0,"(0.0, 0.0, 0.0, 0.0, 0.0, 0.0, 0.0, 0.0, 0.0)",1.0478515625,0.81494140625,-0.3330078125,"(0.0, 0.0, 0.0, 0.0, 0.0, 0.0, 0.0, 0.0, 0.0)"
2022/11/28/22:58:38.193881,2741,1669697918,193503379,RL_myo,0.622564358230219,0.13000608657160456,-0.7675852322650231,-0.07952954497784073,"(0.0, 0.0, 0.0, 0.0, 0.0, 0.0, 0.0, 0.0, 0.0)",56.5,100.9375,57.375,"(0.0, 0.0, 0.0, 0.0, 0.0, 0.0, 0.0, 0.0, 0.0)",1.25341796875,0.7294921875,-0.40673828125,"(0.0, 0.0, 0.0, 0.0, 0.0, 0.0, 0.0, 0.0, 0.0)"
2022/11/28/22:58:38.216873,2742,1669697918,216295719,RL_myo,0.6367164302336633,0.12792922141197835,-0.7571993897123108,-0.0698239643584462,"(0.0, 0.0, 0.0, 0.0, 0.0, 0.0, 0.0, 0.0, 0.0)",20.3125,110.5625,50.125,"(0.0, 0.0, 0.0, 0.0, 0.0, 0.0, 0.0, 0.0, 0.0)",1.115234375,0.78466796875,-0.5009765625,"(0.0, 0.0, 0.0, 0.0, 0.0, 0.0, 0.0, 0.0, 0.0)"
2022/11/28/22:58:38.237622,2743,1669697918,236888647,RL_myo,0.6469950610649732,0.12915486313334748,-0.7486221154681033,-0.06543195334543879,"(0.0, 0.0, 0.0, 0.0, 0.0, 0.0, 0.0, 0.0, 0.0)",12.25,98.0,36.4375,"(0.0, 0.0, 0.0, 0.0, 0.0, 0.0, 0.0, 0.0, 0.0)",0.89111328125,0.66357421875,-0.4208984375,"(0.0, 0.0, 0.0, 0.0, 0.0, 0.0, 0.0, 0.0, 0.0)"
2022/11/28/22:58:38.252932,2744,1669697918,252613544,RL_myo,0.6530639517696976,0.13360345704895962,-0.7430891226912212,-0.058958857701825025,"(0.0, 0.0, 0.0, 0.0, 0.0, 0.0, 0.0, 0.0, 0.0)",35.625,69.4375,19.0,"(0.0, 0.0, 0.0, 0.0, 0.0, 0.0, 0.0, 0.0, 0.0)",0.8876953125,0.47705078125,-0.37548828125,"(0.0, 0.0, 0.0, 0.0, 0.0, 0.0, 0.0, 0.0, 0.0)"
2022/11/28/22:58:38.276540,2745,1669697918,276089668,RL_myo,0.6559384037937179,0.14263776399608438,-0.739616783955734,-0.04864454339104803,"(0.0, 0.0, 0.0, 0.0, 0.0, 0.0, 0.0, 0.0, 0.0)",70.125,56.0625,7.25,"(0.0, 0.0, 0.0, 0.0, 0.0, 0.0, 0.0, 0.0, 0.0)",0.96484375,0.38671875,-0.4306640625,"(0.0, 0.0, 0.0, 0.0, 0.0, 0.0, 0.0, 0.0, 0.0)"
2022/11/28/22:58:38.297173,2746,1669697918,296718835,RL_myo,0.6595020724182492,0.15643718756205208,-0.7344552001303833,-0.03405850591479714,"(0.0, 0.0, 0.0, 0.0, 0.0, 0.0, 0.0, 0.0, 0.0)",107.625,55.5625,-8.1875,"(0.0, 0.0, 0.0, 0.0, 0.0, 0.0, 0.0, 0.0, 0.0)",1.00634765625,0.1826171875,-0.46875,"(0.0, 0.0, 0.0, 0.0, 0.0, 0.0, 0.0, 0.0, 0.0)"
2022/11/28/22:58:38.313622,2747,1669697918,313230514,RL_myo,0.6613097947914698,0.1752913456983019,-0.7291802601175532,-0.0154417515535064,"(0.0, 0.0, 0.0, 0.0, 0.0, 0.0, 0.0, 0.0, 0.0)",145.9375,52.0625,-13.875,"(0.0, 0.0, 0.0, 0.0, 0.0, 0.0, 0.0, 0.0, 0.0)",0.978515625,0.236328125,-0.38330078125,"(0.0, 0.0, 0.0, 0.0, 0.0, 0.0, 0.0, 0.0, 0.0)"
2022/11/28/22:58:38.336312,2748,1669697918,336012125,RL_myo,0.6603317408073018,0.19341817974104256,-0.7256386049041511,-0.00012206890485392398,"(0.0, 0.0, 0.0, 0.0, 0.0, 0.0, 0.0, 0.0, 0.0)",132.6875,29.625,-19.25,"(0.0, 0.0, 0.0, 0.0, 0.0, 0.0, 0.0, 0.0, 0.0)",0.9189453125,0.36083984375,-0.31640625,"(0.0, 0.0, 0.0, 0.0, 0.0, 0.0, 0.0, 0.0, 0.0)"
