time,.header.seq,.header.stamp.secs,.header.stamp.nsecs,.header.frame_id,.orientation.x,.orientation.y,.orientation.z,.orientation.w,.orientation_covariance,.angular_velocity.x,.angular_velocity.y,.angular_velocity.z,.angular_velocity_covariance,.linear_acceleration.x,.linear_acceleration.y,.linear_acceleration.z,.linear_acceleration_covariance
2022/11/28/23:03:57.621562,5332,1669698237,621274709,RL_myo,0.709466552339665,0.5061601960214076,-0.22064019156124304,-0.43792347840993606,"(0.0, 0.0, 0.0, 0.0, 0.0, 0.0, 0.0, 0.0, 0.0)",-69.9375,368.9375,4.5,"(0.0, 0.0, 0.0, 0.0, 0.0, 0.0, 0.0, 0.0, 0.0)",-0.17138671875,0.2802734375,0.423828125,"(0.0, 0.0, 0.0, 0.0, 0.0, 0.0, 0.0, 0.0, 0.0)"
2022/11/28/23:03:57.641052,5333,1669698237,640530109,RL_myo,0.7316504126107275,0.5218662741154351,-0.1759086084211326,-0.40174547558219803,"(0.0, 0.0, 0.0, 0.0, 0.0, 0.0, 0.0, 0.0, 0.0)",-63.3125,354.3125,56.4375,"(0.0, 0.0, 0.0, 0.0, 0.0, 0.0, 0.0, 0.0, 0.0)",-0.279296875,0.287109375,0.36474609375,"(0.0, 0.0, 0.0, 0.0, 0.0, 0.0, 0.0, 0.0, 0.0)"
2022/11/28/23:03:57.663722,5334,1669698237,663196325,RL_myo,0.7510589348405485,0.5365753024122928,-0.14056795830457403,-0.3581034352466069,"(0.0, 0.0, 0.0, 0.0, 0.0, 0.0, 0.0, 0.0, 0.0)",-30.3125,332.25,109.0,"(0.0, 0.0, 0.0, 0.0, 0.0, 0.0, 0.0, 0.0, 0.0)",-0.20458984375,0.39794921875,0.3837890625,"(0.0, 0.0, 0.0, 0.0, 0.0, 0.0, 0.0, 0.0, 0.0)"
2022/11/28/23:03:57.682482,5335,1669698237,682119846,RL_myo,0.7655735504210428,0.5523750802288477,-0.11309956062586242,-0.309818332291893,"(0.0, 0.0, 0.0, 0.0, 0.0, 0.0, 0.0, 0.0, 0.0)",8.625,312.25,140.125,"(0.0, 0.0, 0.0, 0.0, 0.0, 0.0, 0.0, 0.0, 0.0)",-0.0712890625,0.50439453125,0.38818359375,"(0.0, 0.0, 0.0, 0.0, 0.0, 0.0, 0.0, 0.0, 0.0)"
2022/11/28/23:03:57.701027,5336,1669698237,700591087,RL_myo,0.7766224089452854,0.5665364036333024,-0.09033332012252612,-0.26025761959625093,"(0.0, 0.0, 0.0, 0.0, 0.0, 0.0, 0.0, 0.0, 0.0)",20.5,290.1875,155.0625,"(0.0, 0.0, 0.0, 0.0, 0.0, 0.0, 0.0, 0.0, 0.0)",-0.03564453125,0.56689453125,0.29638671875,"(0.0, 0.0, 0.0, 0.0, 0.0, 0.0, 0.0, 0.0, 0.0)"
2022/11/28/23:03:57.724087,5337,1669698237,723370075,RL_myo,0.7848145908997048,0.5781430864055066,-0.07275618232636866,-0.2110051361596111,"(0.0, 0.0, 0.0, 0.0, 0.0, 0.0, 0.0, 0.0, 0.0)",24.75,260.5,166.625,"(0.0, 0.0, 0.0, 0.0, 0.0, 0.0, 0.0, 0.0, 0.0)",0.01513671875,0.70458984375,0.2802734375,"(0.0, 0.0, 0.0, 0.0, 0.0, 0.0, 0.0, 0.0, 0.0)"
2022/11/28/23:03:57.746268,5338,1669698237,745675563,RL_myo,0.7884025119702082,0.5893639897487288,-0.06335540817721422,-0.16449212431367274,"(0.0, 0.0, 0.0, 0.0, 0.0, 0.0, 0.0, 0.0, 0.0)",48.875,213.375,173.6875,"(0.0, 0.0, 0.0, 0.0, 0.0, 0.0, 0.0, 0.0, 0.0)",0.17919921875,0.6796875,0.36669921875,"(0.0, 0.0, 0.0, 0.0, 0.0, 0.0, 0.0, 0.0, 0.0)"
2022/11/28/23:03:57.761308,5339,1669698237,760753870,RL_myo,0.7886354624968962,0.5996095335941111,-0.06127931308311151,-0.12152102823553289,"(0.0, 0.0, 0.0, 0.0, 0.0, 0.0, 0.0, 0.0, 0.0)",59.5625,166.5,176.9375,"(0.0, 0.0, 0.0, 0.0, 0.0, 0.0, 0.0, 0.0, 0.0)",0.38037109375,0.69921875,0.2412109375,"(0.0, 0.0, 0.0, 0.0, 0.0, 0.0, 0.0, 0.0, 0.0)"
2022/11/28/23:03:57.783518,5340,1669698237,783094644,RL_myo,0.7873817146929446,0.6075657045002768,-0.06390609730879945,-0.08252248668719854,"(0.0, 0.0, 0.0, 0.0, 0.0, 0.0, 0.0, 0.0, 0.0)",52.875,129.5625,172.5625,"(0.0, 0.0, 0.0, 0.0, 0.0, 0.0, 0.0, 0.0, 0.0)",0.5517578125,0.99853515625,0.08984375,"(0.0, 0.0, 0.0, 0.0, 0.0, 0.0, 0.0, 0.0, 0.0)"
2022/11/28/23:03:57.801917,5341,1669698237,801547288,RL_myo,0.7845716249669614,0.614033806376819,-0.06677465051453678,-0.05432307034546411,"(0.0, 0.0, 0.0, 0.0, 0.0, 0.0, 0.0, 0.0, 0.0)",47.375,90.0,123.8125,"(0.0, 0.0, 0.0, 0.0, 0.0, 0.0, 0.0, 0.0, 0.0)",0.62353515625,1.07958984375,0.1064453125,"(0.0, 0.0, 0.0, 0.0, 0.0, 0.0, 0.0, 0.0, 0.0)"
2022/11/28/23:03:57.824322,5342,1669698237,824032068,RL_myo,0.7840779032240884,0.6152502930483272,-0.07415963353707516,-0.034485755513125486,"(0.0, 0.0, 0.0, 0.0, 0.0, 0.0, 0.0, 0.0, 0.0)",1.0,47.375,73.875,"(0.0, 0.0, 0.0, 0.0, 0.0, 0.0, 0.0, 0.0, 0.0)",0.66748046875,0.92822265625,-0.0107421875,"(0.0, 0.0, 0.0, 0.0, 0.0, 0.0, 0.0, 0.0, 0.0)"
2022/11/28/23:03:57.843452,5343,1669698237,842987537,RL_myo,0.7855607294853574,0.613005936769343,-0.08270666576943739,-0.016663409413325763,"(0.0, 0.0, 0.0, 0.0, 0.0, 0.0, 0.0, 0.0, 0.0)",-23.375,36.375,69.3125,"(0.0, 0.0, 0.0, 0.0, 0.0, 0.0, 0.0, 0.0, 0.0)",0.71728515625,0.82958984375,-0.04345703125,"(0.0, 0.0, 0.0, 0.0, 0.0, 0.0, 0.0, 0.0, 0.0)"
2022/11/28/23:03:57.862629,5344,1669698237,862299442,RL_myo,0.7848293786643212,0.6132509540706513,-0.08923787148913032,-0.0016480318264066474,"(0.0, 0.0, 0.0, 0.0, 0.0, 0.0, 0.0, 0.0, 0.0)",-3.8125,31.5625,62.5,"(0.0, 0.0, 0.0, 0.0, 0.0, 0.0, 0.0, 0.0, 0.0)",0.53564453125,0.8583984375,-0.0185546875,"(0.0, 0.0, 0.0, 0.0, 0.0, 0.0, 0.0, 0.0, 0.0)"
2022/11/28/23:03:57.880997,5345,1669698237,880571842,RL_myo,0.7810513529686637,0.6172844898852842,-0.09399961578397485,0.009094768020657307,"(0.0, 0.0, 0.0, 0.0, 0.0, 0.0, 0.0, 0.0, 0.0)",27.4375,21.3125,40.375,"(0.0, 0.0, 0.0, 0.0, 0.0, 0.0, 0.0, 0.0, 0.0)",0.47265625,0.86474609375,0.06103515625,"(0.0, 0.0, 0.0, 0.0, 0.0, 0.0, 0.0, 0.0, 0.0)"
2022/11/28/23:03:57.903688,5346,1669698237,903227806,RL_myo,0.7850595303098862,0.6118361632581479,-0.09521791846395758,0.01648002434953112,"(0.0, 0.0, 0.0, 0.0, 0.0, 0.0, 0.0, 0.0, 0.0)",-24.5625,27.0,15.6875,"(0.0, 0.0, 0.0, 0.0, 0.0, 0.0, 0.0, 0.0, 0.0)",0.54150390625,1.04296875,0.4052734375,"(0.0, 0.0, 0.0, 0.0, 0.0, 0.0, 0.0, 0.0, 0.0)"
2022/11/28/23:03:57.925953,5347,1669698237,925575494,RL_myo,0.7798132876238907,0.619285035710081,-0.09070151419920958,0.012268508986568723,"(0.0, 0.0, 0.0, 0.0, 0.0, 0.0, 0.0, 0.0, 0.0)",39.0,2.375,-32.3125,"(0.0, 0.0, 0.0, 0.0, 0.0, 0.0, 0.0, 0.0, 0.0)",0.13037109375,1.322265625,0.13671875,"(0.0, 0.0, 0.0, 0.0, 0.0, 0.0, 0.0, 0.0, 0.0)"
2022/11/28/23:03:57.941001,5348,1669698237,940604448,RL_myo,0.7757463305386695,0.6251017523838629,-0.08606517633641701,0.007629891519185906,"(0.0, 0.0, 0.0, 0.0, 0.0, 0.0, 0.0, 0.0, 0.0)",20.0625,1.8125,-27.5,"(0.0, 0.0, 0.0, 0.0, 0.0, 0.0, 0.0, 0.0, 0.0)",0.005859375,1.27490234375,0.00048828125,"(0.0, 0.0, 0.0, 0.0, 0.0, 0.0, 0.0, 0.0, 0.0)"
2022/11/28/23:03:57.964207,5349,1669698237,963429212,RL_myo,0.7725445087925046,0.6289245965551052,-0.08685556103434733,0.009216577453398767,"(0.0, 0.0, 0.0, 0.0, 0.0, 0.0, 0.0, 0.0, 0.0)",22.9375,0.9375,10.375,"(0.0, 0.0, 0.0, 0.0, 0.0, 0.0, 0.0, 0.0, 0.0)",0.11669921875,0.9970703125,0.1103515625,"(0.0, 0.0, 0.0, 0.0, 0.0, 0.0, 0.0, 0.0, 0.0)"
2022/11/28/23:03:57.986047,5350,1669698237,985674381,RL_myo,0.7687027400651242,0.63374944815755,-0.08594040479686318,0.0084841734849176,"(0.0, 0.0, 0.0, 0.0, 0.0, 0.0, 0.0, 0.0, 0.0)",29.625,-1.25,-2.25,"(0.0, 0.0, 0.0, 0.0, 0.0, 0.0, 0.0, 0.0, 0.0)",0.0576171875,1.01953125,0.11181640625,"(0.0, 0.0, 0.0, 0.0, 0.0, 0.0, 0.0, 0.0, 0.0)"
2022/11/28/23:03:58.001155,5351,1669698238,805377,RL_myo,0.7667010799903179,0.636140327653777,-0.08594181359974266,0.010437535600536929,"(0.0, 0.0, 0.0, 0.0, 0.0, 0.0, 0.0, 0.0, 0.0)",14.4375,5.375,14.4375,"(0.0, 0.0, 0.0, 0.0, 0.0, 0.0, 0.0, 0.0, 0.0)",0.05615234375,1.07275390625,0.130859375,"(0.0, 0.0, 0.0, 0.0, 0.0, 0.0, 0.0, 0.0, 0.0)"
2022/11/28/23:03:58.023370,5352,1669698238,23009061,RL_myo,0.7652628686058667,0.6375156055661411,-0.0879521290206615,0.014526444626590865,"(0.0, 0.0, 0.0, 0.0, 0.0, 0.0, 0.0, 0.0, 0.0)",11.0,5.5,25.125,"(0.0, 0.0, 0.0, 0.0, 0.0, 0.0, 0.0, 0.0, 0.0)",0.14697265625,0.9794921875,0.142578125,"(0.0, 0.0, 0.0, 0.0, 0.0, 0.0, 0.0, 0.0, 0.0)"
2022/11/28/23:03:58.046295,5353,1669698238,45777320,RL_myo,0.7652373359076144,0.6373620691989559,-0.08942112922586386,0.013611543902640027,"(0.0, 0.0, 0.0, 0.0, 0.0, 0.0, 0.0, 0.0, 0.0)",-4.0,-10.6875,8.75,"(0.0, 0.0, 0.0, 0.0, 0.0, 0.0, 0.0, 0.0, 0.0)",0.04833984375,0.990234375,0.1357421875,"(0.0, 0.0, 0.0, 0.0, 0.0, 0.0, 0.0, 0.0, 0.0)"
2022/11/28/23:03:58.063606,5354,1669698238,63117980,RL_myo,0.7658966572584591,0.636131252944506,-0.0925326213264125,0.01330614211685879,"(0.0, 0.0, 0.0, 0.0, 0.0, 0.0, 0.0, 0.0, 0.0)",-9.875,-14.375,12.375,"(0.0, 0.0, 0.0, 0.0, 0.0, 0.0, 0.0, 0.0, 0.0)",0.140625,1.0126953125,0.1513671875,"(0.0, 0.0, 0.0, 0.0, 0.0, 0.0, 0.0, 0.0, 0.0)"
2022/11/28/23:03:58.083639,5355,1669698238,83216905,RL_myo,0.7660178215811421,0.635764273274038,-0.09418051782467747,0.012268492600622277,"(0.0, 0.0, 0.0, 0.0, 0.0, 0.0, 0.0, 0.0, 0.0)",-3.75,-10.75,0.1875,"(0.0, 0.0, 0.0, 0.0, 0.0, 0.0, 0.0, 0.0, 0.0)",0.16943359375,0.90625,0.1533203125,"(0.0, 0.0, 0.0, 0.0, 0.0, 0.0, 0.0, 0.0, 0.0)"
2022/11/28/23:03:58.105781,5356,1669698238,105448722,RL_myo,0.765456361992483,0.636486639251863,-0.09387384456936759,0.01220726197260957,"(0.0, 0.0, 0.0, 0.0, 0.0, 0.0, 0.0, 0.0, 0.0)",9.625,0.125,-1.125,"(0.0, 0.0, 0.0, 0.0, 0.0, 0.0, 0.0, 0.0, 0.0)",0.14990234375,0.986328125,0.23779296875,"(0.0, 0.0, 0.0, 0.0, 0.0, 0.0, 0.0, 0.0, 0.0)"
2022/11/28/23:03:58.123368,5357,1669698238,122786760,RL_myo,0.7646678054416602,0.6380166483302742,-0.09015120918241795,0.00952172554668734,"(0.0, 0.0, 0.0, 0.0, 0.0, 0.0, 0.0, 0.0, 0.0)",3.75,4.625,-14.6875,"(0.0, 0.0, 0.0, 0.0, 0.0, 0.0, 0.0, 0.0, 0.0)",0.00927734375,1.1484375,0.1298828125,"(0.0, 0.0, 0.0, 0.0, 0.0, 0.0, 0.0, 0.0, 0.0)"
2022/11/28/23:03:58.143789,5358,1669698238,143205881,RL_myo,0.7643686561022347,0.6391203543916393,-0.08502479740880084,0.0060426812228796005,"(0.0, 0.0, 0.0, 0.0, 0.0, 0.0, 0.0, 0.0, 0.0)",-0.375,8.0,-21.6875,"(0.0, 0.0, 0.0, 0.0, 0.0, 0.0, 0.0, 0.0, 0.0)",-0.0078125,1.2646484375,0.14892578125,"(0.0, 0.0, 0.0, 0.0, 0.0, 0.0, 0.0, 0.0, 0.0)"
2022/11/28/23:03:58.165963,5359,1669698238,165570974,RL_myo,0.7646603090561015,0.6398414766790479,-0.07678341864563983,0.001342794284740919,"(0.0, 0.0, 0.0, 0.0, 0.0, 0.0, 0.0, 0.0, 0.0)",-1.8125,17.0,-38.6875,"(0.0, 0.0, 0.0, 0.0, 0.0, 0.0, 0.0, 0.0, 0.0)",-0.0283203125,1.23779296875,0.18994140625,"(0.0, 0.0, 0.0, 0.0, 0.0, 0.0, 0.0, 0.0, 0.0)"
2022/11/28/23:03:58.182751,5360,1669698238,182408332,RL_myo,0.7666691509257445,0.6387383699098732,-0.06469781864352275,-0.0067749602541802125,"(0.0, 0.0, 0.0, 0.0, 0.0, 0.0, 0.0, 0.0, 0.0)",-13.8125,21.25,-63.8125,"(0.0, 0.0, 0.0, 0.0, 0.0, 0.0, 0.0, 0.0, 0.0)",-0.11474609375,1.15869140625,0.2333984375,"(0.0, 0.0, 0.0, 0.0, 0.0, 0.0, 0.0, 0.0, 0.0)"
2022/11/28/23:03:58.203509,5361,1669698238,203131914,RL_myo,0.7676951115974735,0.638596347104458,-0.04980831764836912,-0.018922277537983367,"(0.0, 0.0, 0.0, 0.0, 0.0, 0.0, 0.0, 0.0, 0.0)",-4.5,18.0,-91.8125,"(0.0, 0.0, 0.0, 0.0, 0.0, 0.0, 0.0, 0.0, 0.0)",-0.16845703125,1.119140625,0.27490234375,"(0.0, 0.0, 0.0, 0.0, 0.0, 0.0, 0.0, 0.0, 0.0)"
2022/11/28/23:03:58.226483,5362,1669698238,225924968,RL_myo,0.7646782434895437,0.642664210225208,-0.033448569399127555,-0.03363168200532716,"(0.0, 0.0, 0.0, 0.0, 0.0, 0.0, 0.0, 0.0, 0.0)",24.0625,17.1875,-123.375,"(0.0, 0.0, 0.0, 0.0, 0.0, 0.0, 0.0, 0.0, 0.0)",-0.1494140625,1.11865234375,0.27099609375,"(0.0, 0.0, 0.0, 0.0, 0.0, 0.0, 0.0, 0.0, 0.0)"
2022/11/28/23:03:58.242959,5363,1669698238,242577314,RL_myo,0.7594576468936555,0.6484872239670628,-0.014405401436015326,-0.049808506660120794,"(0.0, 0.0, 0.0, 0.0, 0.0, 0.0, 0.0, 0.0, 0.0)",39.0,23.75,-142.6875,"(0.0, 0.0, 0.0, 0.0, 0.0, 0.0, 0.0, 0.0, 0.0)",-0.09912109375,1.15234375,0.23583984375,"(0.0, 0.0, 0.0, 0.0, 0.0, 0.0, 0.0, 0.0, 0.0)"
2022/11/28/23:03:58.265141,5364,1669698238,264822006,RL_myo,0.7555769623925505,0.65163095973042,0.0061647365055050975,-0.06665239865357986,"(0.0, 0.0, 0.0, 0.0, 0.0, 0.0, 0.0, 0.0, 0.0)",21.5625,27.5,-151.0,"(0.0, 0.0, 0.0, 0.0, 0.0, 0.0, 0.0, 0.0, 0.0)",-0.115234375,1.14892578125,0.22119140625,"(0.0, 0.0, 0.0, 0.0, 0.0, 0.0, 0.0, 0.0, 0.0)"
2022/11/28/23:03:58.285876,5365,1669698238,285518407,RL_myo,0.7534556669723041,0.6517049705333191,0.026917850707613912,-0.08282885127036753,"(0.0, 0.0, 0.0, 0.0, 0.0, 0.0, 0.0, 0.0, 0.0)",1.375,29.8125,-149.125,"(0.0, 0.0, 0.0, 0.0, 0.0, 0.0, 0.0, 0.0, 0.0)",-0.11865234375,1.01708984375,0.17724609375,"(0.0, 0.0, 0.0, 0.0, 0.0, 0.0, 0.0, 0.0, 0.0)"
2022/11/28/23:03:58.302387,5366,1669698238,302084684,RL_myo,0.751757800354795,0.6504939004856326,0.04681700494252418,-0.0976015526767877,"(0.0, 0.0, 0.0, 0.0, 0.0, 0.0, 0.0, 0.0, 0.0)",-5.25,30.875,-140.875,"(0.0, 0.0, 0.0, 0.0, 0.0, 0.0, 0.0, 0.0, 0.0)",-0.0625,0.82373046875,0.18310546875,"(0.0, 0.0, 0.0, 0.0, 0.0, 0.0, 0.0, 0.0, 0.0)"
2022/11/28/23:03:58.323526,5367,1669698238,323051929,RL_myo,0.7488600918874565,0.6501636399694504,0.06488208310998177,-0.11084276851150224,"(0.0, 0.0, 0.0, 0.0, 0.0, 0.0, 0.0, 0.0, 0.0)",3.9375,29.625,-128.5625,"(0.0, 0.0, 0.0, 0.0, 0.0, 0.0, 0.0, 0.0, 0.0)",-0.03662109375,0.720703125,0.18017578125,"(0.0, 0.0, 0.0, 0.0, 0.0, 0.0, 0.0, 0.0, 0.0)"
2022/11/28/23:03:58.346268,5368,1669698238,345697641,RL_myo,0.7449825538083756,0.6510433362490893,0.07983917905623558,-0.12152890328819957,"(0.0, 0.0, 0.0, 0.0, 0.0, 0.0, 0.0, 0.0, 0.0)",13.125,26.875,-106.1875,"(0.0, 0.0, 0.0, 0.0, 0.0, 0.0, 0.0, 0.0, 0.0)",-0.05908203125,0.69921875,0.1240234375,"(0.0, 0.0, 0.0, 0.0, 0.0, 0.0, 0.0, 0.0, 0.0)"
2022/11/28/23:03:58.364077,5369,1669698238,363734483,RL_myo,0.7419617790530277,0.6516275051966209,0.09155500728689878,-0.12842115688775668,"(0.0, 0.0, 0.0, 0.0, 0.0, 0.0, 0.0, 0.0, 0.0)",8.6875,27.125,-83.625,"(0.0, 0.0, 0.0, 0.0, 0.0, 0.0, 0.0, 0.0, 0.0)",-0.099609375,0.72314453125,0.1015625,"(0.0, 0.0, 0.0, 0.0, 0.0, 0.0, 0.0, 0.0, 0.0)"
2022/11/28/23:03:58.383769,5370,1669698238,383252382,RL_myo,0.7405056414207015,0.6510858619382314,0.10065065963589984,-0.13269529050845738,"(0.0, 0.0, 0.0, 0.0, 0.0, 0.0, 0.0, 0.0, 0.0)",-1.25,24.1875,-60.625,"(0.0, 0.0, 0.0, 0.0, 0.0, 0.0, 0.0, 0.0, 0.0)",-0.134765625,0.70166015625,0.1015625,"(0.0, 0.0, 0.0, 0.0, 0.0, 0.0, 0.0, 0.0, 0.0)"
2022/11/28/23:03:58.405972,5371,1669698238,405545234,RL_myo,0.7401864514416073,0.6499748925044674,0.107057560470733,-0.13489008474362596,"(0.0, 0.0, 0.0, 0.0, 0.0, 0.0, 0.0, 0.0, 0.0)",-6.6875,19.125,-39.25,"(0.0, 0.0, 0.0, 0.0, 0.0, 0.0, 0.0, 0.0, 0.0)",-0.1513671875,0.65478515625,0.1015625,"(0.0, 0.0, 0.0, 0.0, 0.0, 0.0, 0.0, 0.0, 0.0)"
2022/11/28/23:03:58.424646,5372,1669698238,424090623,RL_myo,0.7396623156347866,0.6497528758815236,0.11139492705343171,-0.1353219470013469,"(0.0, 0.0, 0.0, 0.0, 0.0, 0.0, 0.0, 0.0, 0.0)",-1.4375,17.4375,-21.1875,"(0.0, 0.0, 0.0, 0.0, 0.0, 0.0, 0.0, 0.0, 0.0)",-0.21044921875,0.671875,0.10302734375,"(0.0, 0.0, 0.0, 0.0, 0.0, 0.0, 0.0, 0.0, 0.0)"
2022/11/28/23:03:58.443460,5373,1669698238,443073034,RL_myo,0.7395277578666666,0.6496198355046989,0.11334624020785736,-0.13507551404415097,"(0.0, 0.0, 0.0, 0.0, 0.0, 0.0, 0.0, 0.0, 0.0)",-0.375,10.0,-9.625,"(0.0, 0.0, 0.0, 0.0, 0.0, 0.0, 0.0, 0.0, 0.0)",-0.22998046875,0.75927734375,0.1279296875,"(0.0, 0.0, 0.0, 0.0, 0.0, 0.0, 0.0, 0.0, 0.0)"
2022/11/28/23:03:58.465958,5374,1669698238,465615034,RL_myo,0.7401662938837376,0.6489731186353206,0.11316743434442103,-0.13483649539742507,"(0.0, 0.0, 0.0, 0.0, 0.0, 0.0, 0.0, 0.0, 0.0)",-4.0,0.5625,-2.4375,"(0.0, 0.0, 0.0, 0.0, 0.0, 0.0, 0.0, 0.0, 0.0)",-0.232421875,0.80419921875,0.13232421875,"(0.0, 0.0, 0.0, 0.0, 0.0, 0.0, 0.0, 0.0, 0.0)"
2022/11/28/23:03:58.484751,5375,1669698238,484348297,RL_myo,0.7412554441864112,0.6481712419149787,0.11200623683152705,-0.13367501834389334,"(0.0, 0.0, 0.0, 0.0, 0.0, 0.0, 0.0, 0.0, 0.0)",-7.4375,-1.4375,5.3125,"(0.0, 0.0, 0.0, 0.0, 0.0, 0.0, 0.0, 0.0, 0.0)",-0.2431640625,0.84130859375,0.11865234375,"(0.0, 0.0, 0.0, 0.0, 0.0, 0.0, 0.0, 0.0, 0.0)"
2022/11/28/23:03:58.503667,5376,1669698238,503216266,RL_myo,0.742418976830255,0.6474420856070472,0.11096914411554745,-0.1316003711293291,"(0.0, 0.0, 0.0, 0.0, 0.0, 0.0, 0.0, 0.0, 0.0)",-9.1875,1.5625,10.5,"(0.0, 0.0, 0.0, 0.0, 0.0, 0.0, 0.0, 0.0, 0.0)",-0.2802734375,0.884765625,0.1123046875,"(0.0, 0.0, 0.0, 0.0, 0.0, 0.0, 0.0, 0.0, 0.0)"
2022/11/28/23:03:58.526286,5377,1669698238,525740146,RL_myo,0.7439249160571282,0.6462649336407018,0.10968436775144892,-0.12994881410285739,"(0.0, 0.0, 0.0, 0.0, 0.0, 0.0, 0.0, 0.0, 0.0)",-11.375,-1.1875,11.8125,"(0.0, 0.0, 0.0, 0.0, 0.0, 0.0, 0.0, 0.0, 0.0)",-0.3125,0.8955078125,0.12451171875,"(0.0, 0.0, 0.0, 0.0, 0.0, 0.0, 0.0, 0.0, 0.0)"
2022/11/28/23:03:58.544234,5378,1669698238,543874502,RL_myo,0.7446347385669838,0.6458180466210866,0.10821617962944773,-0.12933450910028185,"(0.0, 0.0, 0.0, 0.0, 0.0, 0.0, 0.0, 0.0, 0.0)",-4.875,-5.4375,9.6875,"(0.0, 0.0, 0.0, 0.0, 0.0, 0.0, 0.0, 0.0, 0.0)",-0.34130859375,0.916015625,0.12255859375,"(0.0, 0.0, 0.0, 0.0, 0.0, 0.0, 0.0, 0.0, 0.0)"
2022/11/28/23:03:58.563953,5379,1669698238,563320875,RL_myo,0.744717605745553,0.6458980168838162,0.10693756620491836,-0.12952141294910774,"(0.0, 0.0, 0.0, 0.0, 0.0, 0.0, 0.0, 0.0, 0.0)",-0.4375,-7.125,6.0625,"(0.0, 0.0, 0.0, 0.0, 0.0, 0.0, 0.0, 0.0, 0.0)",-0.3603515625,0.93994140625,0.12255859375,"(0.0, 0.0, 0.0, 0.0, 0.0, 0.0, 0.0, 0.0, 0.0)"
2022/11/28/23:03:58.585787,5380,1669698238,585473537,RL_myo,0.7454572062843391,0.6452327951880577,0.10571783192372679,-0.1295836935185173,"(0.0, 0.0, 0.0, 0.0, 0.0, 0.0, 0.0, 0.0, 0.0)",-6.375,-7.25,6.125,"(0.0, 0.0, 0.0, 0.0, 0.0, 0.0, 0.0, 0.0, 0.0)",-0.36572265625,0.9755859375,0.1220703125,"(0.0, 0.0, 0.0, 0.0, 0.0, 0.0, 0.0, 0.0, 0.0)"
2022/11/28/23:03:58.603943,5381,1669698238,603548526,RL_myo,0.7468659179789291,0.6438941295161591,0.10437567176724163,-0.129218302415936,"(0.0, 0.0, 0.0, 0.0, 0.0, 0.0, 0.0, 0.0, 0.0)",-12.375,-7.0625,7.3125,"(0.0, 0.0, 0.0, 0.0, 0.0, 0.0, 0.0, 0.0, 0.0)",-0.349609375,0.97802734375,0.1220703125,"(0.0, 0.0, 0.0, 0.0, 0.0, 0.0, 0.0, 0.0, 0.0)"
2022/11/28/23:03:58.623672,5382,1669698238,623165607,RL_myo,0.7479398104185465,0.6428961990483557,0.10351770184999633,-0.12866469074280204,"(0.0, 0.0, 0.0, 0.0, 0.0, 0.0, 0.0, 0.0, 0.0)",-9.375,-3.8125,7.0625,"(0.0, 0.0, 0.0, 0.0, 0.0, 0.0, 0.0, 0.0, 0.0)",-0.34619140625,0.95458984375,0.134765625,"(0.0, 0.0, 0.0, 0.0, 0.0, 0.0, 0.0, 0.0, 0.0)"
2022/11/28/23:03:58.646432,5383,1669698238,645856618,RL_myo,0.7483684981184852,0.6423481016392577,0.1035179000741335,-0.12890908311118512,"(0.0, 0.0, 0.0, 0.0, 0.0, 0.0, 0.0, 0.0, 0.0)",-4.5,-2.3125,1.875,"(0.0, 0.0, 0.0, 0.0, 0.0, 0.0, 0.0, 0.0, 0.0)",-0.36572265625,0.94189453125,0.142578125,"(0.0, 0.0, 0.0, 0.0, 0.0, 0.0, 0.0, 0.0, 0.0)"
2022/11/28/23:03:58.664625,5384,1669698238,664208173,RL_myo,0.7484003573771024,0.6420702519574049,0.10431581524814192,-0.12946392284453423,"(0.0, 0.0, 0.0, 0.0, 0.0, 0.0, 0.0, 0.0, 0.0)",-2.875,0.1875,-1.75,"(0.0, 0.0, 0.0, 0.0, 0.0, 0.0, 0.0, 0.0, 0.0)",-0.39013671875,0.95947265625,0.14013671875,"(0.0, 0.0, 0.0, 0.0, 0.0, 0.0, 0.0, 0.0, 0.0)"
2022/11/28/23:03:58.683740,5385,1669698238,683259725,RL_myo,0.7484271883233778,0.6417357248435813,0.10534866474034824,-0.1301294051138021,"(0.0, 0.0, 0.0, 0.0, 0.0, 0.0, 0.0, 0.0, 0.0)",-3.0625,0.6875,-2.3125,"(0.0, 0.0, 0.0, 0.0, 0.0, 0.0, 0.0, 0.0, 0.0)",-0.3994140625,0.95166015625,0.14013671875,"(0.0, 0.0, 0.0, 0.0, 0.0, 0.0, 0.0, 0.0, 0.0)"
2022/11/28/23:03:58.705705,5386,1669698238,705404758,RL_myo,0.7483856198905232,0.6414472293801083,0.1066332010397801,-0.13074316921992502,"(0.0, 0.0, 0.0, 0.0, 0.0, 0.0, 0.0, 0.0, 0.0)",-3.4375,1.375,-3.0,"(0.0, 0.0, 0.0, 0.0, 0.0, 0.0, 0.0, 0.0, 0.0)",-0.39501953125,0.921875,0.123046875,"(0.0, 0.0, 0.0, 0.0, 0.0, 0.0, 0.0, 0.0, 0.0)"
2022/11/28/23:03:58.724594,5387,1669698238,724171638,RL_myo,0.7480253090559813,0.6413912645907998,0.10828208064180424,-0.1317208173759941,"(0.0, 0.0, 0.0, 0.0, 0.0, 0.0, 0.0, 0.0, 0.0)",-1.0,2.3125,-5.0,"(0.0, 0.0, 0.0, 0.0, 0.0, 0.0, 0.0, 0.0, 0.0)",-0.412109375,0.91943359375,0.13037109375,"(0.0, 0.0, 0.0, 0.0, 0.0, 0.0, 0.0, 0.0, 0.0)"
2022/11/28/23:03:58.743459,5388,1669698238,743156671,RL_myo,0.7473579271129336,0.6415778480793894,0.11005278851556838,-0.1331254197184995,"(0.0, 0.0, 0.0, 0.0, 0.0, 0.0, 0.0, 0.0, 0.0)",1.5625,1.1875,-6.0,"(0.0, 0.0, 0.0, 0.0, 0.0, 0.0, 0.0, 0.0, 0.0)",-0.427734375,0.89404296875,0.12841796875,"(0.0, 0.0, 0.0, 0.0, 0.0, 0.0, 0.0, 0.0, 0.0)"
2022/11/28/23:03:58.766038,5389,1669698238,765702724,RL_myo,0.7467377664550513,0.6417525646974341,0.11145522000547031,-0.13458858713694524,"(0.0, 0.0, 0.0, 0.0, 0.0, 0.0, 0.0, 0.0, 0.0)",2.0,0.0,-5.25,"(0.0, 0.0, 0.0, 0.0, 0.0, 0.0, 0.0, 0.0, 0.0)",-0.42236328125,0.8798828125,0.13427734375,"(0.0, 0.0, 0.0, 0.0, 0.0, 0.0, 0.0, 0.0, 0.0)"
2022/11/28/23:03:58.784367,5390,1669698238,783982992,RL_myo,0.7460667636224992,0.6420581106557367,0.11255396483022896,-0.1359314965709978,"(0.0, 0.0, 0.0, 0.0, 0.0, 0.0, 0.0, 0.0, 0.0)",3.25,-1.3125,-2.625,"(0.0, 0.0, 0.0, 0.0, 0.0, 0.0, 0.0, 0.0, 0.0)",-0.43994140625,0.876953125,0.12890625,"(0.0, 0.0, 0.0, 0.0, 0.0, 0.0, 0.0, 0.0, 0.0)"
2022/11/28/23:03:58.803620,5391,1669698238,803218841,RL_myo,0.7452071739136248,0.6425420525668547,0.11340772619637275,-0.13763962463553314,"(0.0, 0.0, 0.0, 0.0, 0.0, 0.0, 0.0, 0.0, 0.0)",4.625,-3.1875,-1.375,"(0.0, 0.0, 0.0, 0.0, 0.0, 0.0, 0.0, 0.0, 0.0)",-0.47021484375,0.87451171875,0.12890625,"(0.0, 0.0, 0.0, 0.0, 0.0, 0.0, 0.0, 0.0, 0.0)"
2022/11/28/23:03:58.825968,5392,1669698238,825593233,RL_myo,0.7444787453355146,0.6428507129518439,0.11420183098489366,-0.13947150390191448,"(0.0, 0.0, 0.0, 0.0, 0.0, 0.0, 0.0, 0.0, 0.0)",2.875,-4.9375,-1.25,"(0.0, 0.0, 0.0, 0.0, 0.0, 0.0, 0.0, 0.0, 0.0)",-0.482421875,0.875,0.11181640625,"(0.0, 0.0, 0.0, 0.0, 0.0, 0.0, 0.0, 0.0, 0.0)"
2022/11/28/23:03:58.844466,5393,1669698238,844107151,RL_myo,0.7440461705236426,0.6427240505015551,0.11517761474799948,-0.14154578092242226,"(0.0, 0.0, 0.0, 0.0, 0.0, 0.0, 0.0, 0.0, 0.0)",-1.1875,-6.25,-1.625,"(0.0, 0.0, 0.0, 0.0, 0.0, 0.0, 0.0, 0.0, 0.0)",-0.501953125,0.859375,0.095703125,"(0.0, 0.0, 0.0, 0.0, 0.0, 0.0, 0.0, 0.0, 0.0)"
2022/11/28/23:03:58.863667,5394,1669698238,863164424,RL_myo,0.7435470967903035,0.6425926641773366,0.11603045731393588,-0.14404622791209296,"(0.0, 0.0, 0.0, 0.0, 0.0, 0.0, 0.0, 0.0, 0.0)",-0.875,-8.875,0.3125,"(0.0, 0.0, 0.0, 0.0, 0.0, 0.0, 0.0, 0.0, 0.0)",-0.55029296875,0.84033203125,0.0888671875,"(0.0, 0.0, 0.0, 0.0, 0.0, 0.0, 0.0, 0.0, 0.0)"
2022/11/28/23:03:58.885882,5395,1669698238,885494947,RL_myo,0.7422889710073293,0.6433455928309556,0.11615622990107291,-0.14704170143546225,"(0.0, 0.0, 0.0, 0.0, 0.0, 0.0, 0.0, 0.0, 0.0)",7.6875,-12.5625,3.125,"(0.0, 0.0, 0.0, 0.0, 0.0, 0.0, 0.0, 0.0, 0.0)",-0.59716796875,0.841796875,0.099609375,"(0.0, 0.0, 0.0, 0.0, 0.0, 0.0, 0.0, 0.0, 0.0)"
2022/11/28/23:03:58.903984,5396,1669698238,903550624,RL_myo,0.7408816700741818,0.6445023524726714,0.11505700676304438,-0.1499098188912663,"(0.0, 0.0, 0.0, 0.0, 0.0, 0.0, 0.0, 0.0, 0.0)",12.625,-16.1875,8.1875,"(0.0, 0.0, 0.0, 0.0, 0.0, 0.0, 0.0, 0.0, 0.0)",-0.5947265625,0.85498046875,0.1298828125,"(0.0, 0.0, 0.0, 0.0, 0.0, 0.0, 0.0, 0.0, 0.0)"
2022/11/28/23:03:58.923683,5397,1669698238,923231840,RL_myo,0.7399739583974805,0.6453637434741039,0.11292186942467532,-0.15229192660246751,"(0.0, 0.0, 0.0, 0.0, 0.0, 0.0, 0.0, 0.0, 0.0)",9.4375,-19.4375,14.1875,"(0.0, 0.0, 0.0, 0.0, 0.0, 0.0, 0.0, 0.0, 0.0)",-0.5966796875,0.8642578125,0.1201171875,"(0.0, 0.0, 0.0, 0.0, 0.0, 0.0, 0.0, 0.0, 0.0)"
2022/11/28/23:03:58.946372,5398,1669698238,945779085,RL_myo,0.7395251707964089,0.6460774127500816,0.10950050812221504,-0.15393549692543274,"(0.0, 0.0, 0.0, 0.0, 0.0, 0.0, 0.0, 0.0, 0.0)",8.1875,-22.875,25.1875,"(0.0, 0.0, 0.0, 0.0, 0.0, 0.0, 0.0, 0.0, 0.0)",-0.634765625,0.86083984375,0.119140625,"(0.0, 0.0, 0.0, 0.0, 0.0, 0.0, 0.0, 0.0, 0.0)"
2022/11/28/23:03:58.964712,5399,1669698238,964376926,RL_myo,0.73933366282142,0.6468635481368289,0.10394495399858648,-0.15539862177357674,"(0.0, 0.0, 0.0, 0.0, 0.0, 0.0, 0.0, 0.0, 0.0)",11.75,-30.8125,36.3125,"(0.0, 0.0, 0.0, 0.0, 0.0, 0.0, 0.0, 0.0, 0.0)",-0.654296875,0.82373046875,0.16064453125,"(0.0, 0.0, 0.0, 0.0, 0.0, 0.0, 0.0, 0.0, 0.0)"
2022/11/28/23:03:58.985117,5400,1669698238,984753370,RL_myo,0.7397278476003251,0.6474983915623606,0.09515931301335974,-0.15650319343569877,"(0.0, 0.0, 0.0, 0.0, 0.0, 0.0, 0.0, 0.0, 0.0)",13.5625,-42.75,49.9375,"(0.0, 0.0, 0.0, 0.0, 0.0, 0.0, 0.0, 0.0, 0.0)",-0.619140625,0.81005859375,0.18505859375,"(0.0, 0.0, 0.0, 0.0, 0.0, 0.0, 0.0, 0.0, 0.0)"
2022/11/28/23:03:59.006451,5401,1669698239,5864143,RL_myo,0.7409407828314327,0.647857769912911,0.08288966002842785,-0.15625738562060038,"(0.0, 0.0, 0.0, 0.0, 0.0, 0.0, 0.0, 0.0, 0.0)",10.5625,-52.875,63.75,"(0.0, 0.0, 0.0, 0.0, 0.0, 0.0, 0.0, 0.0, 0.0)",-0.53125,0.8251953125,0.1748046875,"(0.0, 0.0, 0.0, 0.0, 0.0, 0.0, 0.0, 0.0, 0.0)"
2022/11/28/23:03:59.024122,5402,1669698239,23737430,RL_myo,0.7427110824903351,0.6481631315717348,0.06744705343128043,-0.15399901882997336,"(0.0, 0.0, 0.0, 0.0, 0.0, 0.0, 0.0, 0.0, 0.0)",12.3125,-58.125,79.875,"(0.0, 0.0, 0.0, 0.0, 0.0, 0.0, 0.0, 0.0, 0.0)",-0.439453125,0.84423828125,0.20947265625,"(0.0, 0.0, 0.0, 0.0, 0.0, 0.0, 0.0, 0.0, 0.0)"
2022/11/28/23:03:59.045695,5403,1669698239,45227289,RL_myo,0.7447926725640486,0.648351726600174,0.049319167303044684,-0.14997177483116433,"(0.0, 0.0, 0.0, 0.0, 0.0, 0.0, 0.0, 0.0, 0.0)",16.5,-61.4375,93.625,"(0.0, 0.0, 0.0, 0.0, 0.0, 0.0, 0.0, 0.0, 0.0)",-0.33349609375,0.802734375,0.26416015625,"(0.0, 0.0, 0.0, 0.0, 0.0, 0.0, 0.0, 0.0, 0.0)"
2022/11/28/23:03:59.066930,5404,1669698239,65937042,RL_myo,0.7455660660771622,0.6499822380397626,0.0279549126699419,-0.14447440674618445,"(0.0, 0.0, 0.0, 0.0, 0.0, 0.0, 0.0, 0.0, 0.0)",23.6875,-68.75,104.5625,"(0.0, 0.0, 0.0, 0.0, 0.0, 0.0, 0.0, 0.0, 0.0)",-0.2177734375,0.78369140625,0.30908203125,"(0.0, 0.0, 0.0, 0.0, 0.0, 0.0, 0.0, 0.0, 0.0)"
2022/11/28/23:03:59.083171,5405,1669698239,82988500,RL_myo,0.7450235853080304,0.6525517901464979,0.004455736664549092,-0.13818887408957733,"(0.0, 0.0, 0.0, 0.0, 0.0, 0.0, 0.0, 0.0, 0.0)",34.1875,-74.3125,113.5625,"(0.0, 0.0, 0.0, 0.0, 0.0, 0.0, 0.0, 0.0, 0.0)",-0.1064453125,0.78173828125,0.28271484375,"(0.0, 0.0, 0.0, 0.0, 0.0, 0.0, 0.0, 0.0, 0.0)"
2022/11/28/23:03:59.105364,5406,1669698239,104938507,RL_myo,0.742885829866497,0.6560296524036735,-0.01989818260919218,-0.1317186443884562,"(0.0, 0.0, 0.0, 0.0, 0.0, 0.0, 0.0, 0.0, 0.0)",44.625,-76.375,115.1875,"(0.0, 0.0, 0.0, 0.0, 0.0, 0.0, 0.0, 0.0, 0.0)",-0.01025390625,0.8310546875,0.259765625,"(0.0, 0.0, 0.0, 0.0, 0.0, 0.0, 0.0, 0.0, 0.0)"
2022/11/28/23:03:59.125895,5407,1669698239,125473737,RL_myo,0.7399718203909975,0.6593397347078739,-0.045168617263823985,-0.1251903162271662,"(0.0, 0.0, 0.0, 0.0, 0.0, 0.0, 0.0, 0.0, 0.0)",47.25,-79.875,117.25,"(0.0, 0.0, 0.0, 0.0, 0.0, 0.0, 0.0, 0.0, 0.0)",0.091796875,0.87353515625,0.26611328125,"(0.0, 0.0, 0.0, 0.0, 0.0, 0.0, 0.0, 0.0, 0.0)"
2022/11/28/23:03:59.148765,5408,1669698239,148229360,RL_myo,0.7389402541910399,0.6595282873396817,-0.07129375655832931,-0.11792768636189403,"(0.0, 0.0, 0.0, 0.0, 0.0, 0.0, 0.0, 0.0, 0.0)",27.625,-82.8125,123.375,"(0.0, 0.0, 0.0, 0.0, 0.0, 0.0, 0.0, 0.0, 0.0)",0.26171875,0.8154296875,0.2255859375,"(0.0, 0.0, 0.0, 0.0, 0.0, 0.0, 0.0, 0.0, 0.0)"
2022/11/28/23:03:59.165175,5409,1669698239,164819478,RL_myo,0.7376964578955121,0.6590194155136393,-0.09674407461231066,-0.11017227424304149,"(0.0, 0.0, 0.0, 0.0, 0.0, 0.0, 0.0, 0.0, 0.0)",23.9375,-78.875,122.9375,"(0.0, 0.0, 0.0, 0.0, 0.0, 0.0, 0.0, 0.0, 0.0)",0.3232421875,0.80810546875,0.154296875,"(0.0, 0.0, 0.0, 0.0, 0.0, 0.0, 0.0, 0.0, 0.0)"
2022/11/28/23:03:59.185972,5410,1669698239,185607433,RL_myo,0.7348152187468879,0.6594965062347474,-0.12060759799350865,-0.10278501772321283,"(0.0, 0.0, 0.0, 0.0, 0.0, 0.0, 0.0, 0.0, 0.0)",32.3125,-73.375,113.375,"(0.0, 0.0, 0.0, 0.0, 0.0, 0.0, 0.0, 0.0, 0.0)",0.38525390625,0.88916015625,0.0986328125,"(0.0, 0.0, 0.0, 0.0, 0.0, 0.0, 0.0, 0.0, 0.0)"
2022/11/28/23:03:59.208528,5411,1669698239,208069324,RL_myo,0.73122945206372,0.6598155573296172,-0.1447809900079419,-0.09479126369406989,"(0.0, 0.0, 0.0, 0.0, 0.0, 0.0, 0.0, 0.0, 0.0)",29.875,-71.5,98.9375,"(0.0, 0.0, 0.0, 0.0, 0.0, 0.0, 0.0, 0.0, 0.0)",0.41650390625,0.89892578125,0.00537109375,"(0.0, 0.0, 0.0, 0.0, 0.0, 0.0, 0.0, 0.0, 0.0)"
2022/11/28/23:03:59.225013,5412,1669698239,224616765,RL_myo,0.7263799803753539,0.6609502401045885,-0.16687025177264245,-0.08758551985872051,"(0.0, 0.0, 0.0, 0.0, 0.0, 0.0, 0.0, 0.0, 0.0)",30.5625,-65.8125,88.0625,"(0.0, 0.0, 0.0, 0.0, 0.0, 0.0, 0.0, 0.0, 0.0)",0.43505859375,0.92919921875,-0.0849609375,"(0.0, 0.0, 0.0, 0.0, 0.0, 0.0, 0.0, 0.0, 0.0)"
2022/11/28/23:03:59.246024,5413,1669698239,245566368,RL_myo,0.7223241439175888,0.6610419535767692,-0.18579978824447696,-0.08215719940113862,"(0.0, 0.0, 0.0, 0.0, 0.0, 0.0, 0.0, 0.0, 0.0)",16.6875,-58.625,68.875,"(0.0, 0.0, 0.0, 0.0, 0.0, 0.0, 0.0, 0.0, 0.0)",0.48974609375,1.0,-0.14404296875,"(0.0, 0.0, 0.0, 0.0, 0.0, 0.0, 0.0, 0.0, 0.0)"
2022/11/28/23:03:59.268420,5414,1669698239,268047332,RL_myo,0.7208328364070782,0.6586373528932075,-0.20141815073186772,-0.07763754173664719,"(0.0, 0.0, 0.0, 0.0, 0.0, 0.0, 0.0, 0.0, 0.0)",-5.625,-46.8125,57.9375,"(0.0, 0.0, 0.0, 0.0, 0.0, 0.0, 0.0, 0.0, 0.0)",0.50244140625,0.982421875,-0.14404296875,"(0.0, 0.0, 0.0, 0.0, 0.0, 0.0, 0.0, 0.0, 0.0)"
2022/11/28/23:03:59.285125,5415,1669698239,284669399,RL_myo,0.7193200426586892,0.6568182417522406,-0.2139343868917018,-0.07348844559703537,"(0.0, 0.0, 0.0, 0.0, 0.0, 0.0, 0.0, 0.0, 0.0)",-7.3125,-34.3125,46.75,"(0.0, 0.0, 0.0, 0.0, 0.0, 0.0, 0.0, 0.0, 0.0)",0.47802734375,0.9287109375,-0.18994140625,"(0.0, 0.0, 0.0, 0.0, 0.0, 0.0, 0.0, 0.0, 0.0)"
2022/11/28/23:03:59.305999,5416,1669698239,305574417,RL_myo,0.7176878346201978,0.6560391942930673,-0.22278964078616448,-0.07001088163883032,"(0.0, 0.0, 0.0, 0.0, 0.0, 0.0, 0.0, 0.0, 0.0)",-3.75,-22.1875,35.375,"(0.0, 0.0, 0.0, 0.0, 0.0, 0.0, 0.0, 0.0, 0.0)",0.41015625,0.97998046875,-0.169921875,"(0.0, 0.0, 0.0, 0.0, 0.0, 0.0, 0.0, 0.0, 0.0)"
2022/11/28/23:03:59.328591,5417,1669698239,328181743,RL_myo,0.7154786593309089,0.6567608236137673,-0.2285234687369837,-0.06732408814553767,"(0.0, 0.0, 0.0, 0.0, 0.0, 0.0, 0.0, 0.0, 0.0)",4.375,-12.5,23.5625,"(0.0, 0.0, 0.0, 0.0, 0.0, 0.0, 0.0, 0.0, 0.0)",0.3466796875,0.9892578125,-0.15478515625,"(0.0, 0.0, 0.0, 0.0, 0.0, 0.0, 0.0, 0.0, 0.0)"
2022/11/28/23:03:59.346940,5418,1669698239,346536636,RL_myo,0.7134142887590668,0.6578695417732051,-0.23249444095510655,-0.0647615126945046,"(0.0, 0.0, 0.0, 0.0, 0.0, 0.0, 0.0, 0.0, 0.0)",8.25,-6.625,17.1875,"(0.0, 0.0, 0.0, 0.0, 0.0, 0.0, 0.0, 0.0, 0.0)",0.33642578125,0.97509765625,-0.10400390625,"(0.0, 0.0, 0.0, 0.0, 0.0, 0.0, 0.0, 0.0, 0.0)"
2022/11/28/23:03:59.366018,5419,1669698239,365634202,RL_myo,0.7115668036588008,0.6591972447688325,-0.23511368396755022,-0.06207440721573172,"(0.0, 0.0, 0.0, 0.0, 0.0, 0.0, 0.0, 0.0, 0.0)",11.6875,-1.0,14.6875,"(0.0, 0.0, 0.0, 0.0, 0.0, 0.0, 0.0, 0.0, 0.0)",0.3173828125,1.001953125,-0.05712890625,"(0.0, 0.0, 0.0, 0.0, 0.0, 0.0, 0.0, 0.0, 0.0)"
2022/11/28/23:03:59.388385,5420,1669698239,388012647,RL_myo,0.7097398501718645,0.660849101978911,-0.23664098719610582,-0.059572247486045726,"(0.0, 0.0, 0.0, 0.0, 0.0, 0.0, 0.0, 0.0, 0.0)",13.75,2.1875,12.3125,"(0.0, 0.0, 0.0, 0.0, 0.0, 0.0, 0.0, 0.0, 0.0)",0.28173828125,1.00341796875,-0.03564453125,"(0.0, 0.0, 0.0, 0.0, 0.0, 0.0, 0.0, 0.0, 0.0)"
2022/11/28/23:03:59.406531,5421,1669698239,406194686,RL_myo,0.7072947783258082,0.6631041138877788,-0.23804363440374976,-0.057984987867580065,"(0.0, 0.0, 0.0, 0.0, 0.0, 0.0, 0.0, 0.0, 0.0)",18.6875,-1.625,6.625,"(0.0, 0.0, 0.0, 0.0, 0.0, 0.0, 0.0, 0.0, 0.0)",0.29248046875,1.0458984375,-0.02880859375,"(0.0, 0.0, 0.0, 0.0, 0.0, 0.0, 0.0, 0.0, 0.0)"
2022/11/28/23:03:59.425878,5422,1669698239,425564527,RL_myo,0.7057234447718794,0.6647668255501245,-0.23823201910955247,-0.05731485163819364,"(0.0, 0.0, 0.0, 0.0, 0.0, 0.0, 0.0, 0.0, 0.0)",11.5,0.9375,2.9375,"(0.0, 0.0, 0.0, 0.0, 0.0, 0.0, 0.0, 0.0, 0.0)",0.2548828125,1.06494140625,-0.02880859375,"(0.0, 0.0, 0.0, 0.0, 0.0, 0.0, 0.0, 0.0, 0.0)"
2022/11/28/23:03:59.444211,5423,1669698239,443803548,RL_myo,0.7060680732670622,0.6645023438501475,-0.23791954958463077,-0.0574351708976751,"(0.0, 0.0, 0.0, 0.0, 0.0, 0.0, 0.0, 0.0, 0.0)",-4.3125,1.5,1.4375,"(0.0, 0.0, 0.0, 0.0, 0.0, 0.0, 0.0, 0.0, 0.0)",0.23583984375,1.013671875,-0.0224609375,"(0.0, 0.0, 0.0, 0.0, 0.0, 0.0, 0.0, 0.0, 0.0)"
2022/11/28/23:03:59.467425,5424,1669698239,467111349,RL_myo,0.7060137387500102,0.664630725447295,-0.23767766047311661,-0.0576188267813616,"(0.0, 0.0, 0.0, 0.0, 0.0, 0.0, 0.0, 0.0, 0.0)",-1.625,0.875,-0.875,"(0.0, 0.0, 0.0, 0.0, 0.0, 0.0, 0.0, 0.0, 0.0)",0.240234375,0.95849609375,-0.02783203125,"(0.0, 0.0, 0.0, 0.0, 0.0, 0.0, 0.0, 0.0, 0.0)"
2022/11/28/23:03:59.486243,5425,1669698239,485743045,RL_myo,0.7064186339368663,0.6644265810468919,-0.23705978695444865,-0.05755596784192716,"(0.0, 0.0, 0.0, 0.0, 0.0, 0.0, 0.0, 0.0, 0.0)",-2.375,2.875,-1.625,"(0.0, 0.0, 0.0, 0.0, 0.0, 0.0, 0.0, 0.0, 0.0)",0.24755859375,0.93603515625,0.009765625,"(0.0, 0.0, 0.0, 0.0, 0.0, 0.0, 0.0, 0.0, 0.0)"
2022/11/28/23:03:59.504190,5426,1669698239,503725528,RL_myo,0.7072436946463523,0.6637238228691149,-0.23658207995592143,-0.05749750240414809,"(0.0, 0.0, 0.0, 0.0, 0.0, 0.0, 0.0, 0.0, 0.0)",-5.75,2.9375,0.1875,"(0.0, 0.0, 0.0, 0.0, 0.0, 0.0, 0.0, 0.0, 0.0)",0.23974609375,0.92626953125,0.01025390625,"(0.0, 0.0, 0.0, 0.0, 0.0, 0.0, 0.0, 0.0, 0.0)"
2022/11/28/23:03:59.526906,5427,1669698239,526534795,RL_myo,0.707417556975793,0.6635930698395878,-0.23651794937715254,-0.057130529191487686,"(0.0, 0.0, 0.0, 0.0, 0.0, 0.0, 0.0, 0.0, 0.0)",0.75,1.4375,0.3125,"(0.0, 0.0, 0.0, 0.0, 0.0, 0.0, 0.0, 0.0, 0.0)",0.26025390625,0.9111328125,0.03173828125,"(0.0, 0.0, 0.0, 0.0, 0.0, 0.0, 0.0, 0.0, 0.0)"
2022/11/28/23:03:59.546421,5428,1669698239,545793294,RL_myo,0.7074758553761639,0.6635905012207448,-0.23639496056180506,-0.0569471980904116,"(0.0, 0.0, 0.0, 0.0, 0.0, 0.0, 0.0, 0.0, 0.0)",1.8125,0.875,-0.625,"(0.0, 0.0, 0.0, 0.0, 0.0, 0.0, 0.0, 0.0, 0.0)",0.2607421875,0.9287109375,0.02880859375,"(0.0, 0.0, 0.0, 0.0, 0.0, 0.0, 0.0, 0.0, 0.0)"
2022/11/28/23:03:59.564483,5429,1669698239,564160108,RL_myo,0.707967313630289,0.6632882832330675,-0.2357856481208558,-0.056886415751653534,"(0.0, 0.0, 0.0, 0.0, 0.0, 0.0, 0.0, 0.0, 0.0)",-4.1875,3.25,0.0625,"(0.0, 0.0, 0.0, 0.0, 0.0, 0.0, 0.0, 0.0, 0.0)",0.2353515625,0.96630859375,0.0,"(0.0, 0.0, 0.0, 0.0, 0.0, 0.0, 0.0, 0.0, 0.0)"
2022/11/28/23:03:59.586787,5430,1669698239,586465358,RL_myo,0.7089321554833964,0.6625448599029072,-0.23504930957955741,-0.05658029342514924,"(0.0, 0.0, 0.0, 0.0, 0.0, 0.0, 0.0, 0.0, 0.0)",-5.3125,4.9375,0.5625,"(0.0, 0.0, 0.0, 0.0, 0.0, 0.0, 0.0, 0.0, 0.0)",0.2373046875,0.93798828125,0.025390625,"(0.0, 0.0, 0.0, 0.0, 0.0, 0.0, 0.0, 0.0, 0.0)"
2022/11/28/23:03:59.605974,5431,1669698239,605543851,RL_myo,0.7088358677707542,0.662935189861204,-0.23432540225367482,-0.05621612281209547,"(0.0, 0.0, 0.0, 0.0, 0.0, 0.0, 0.0, 0.0, 0.0)",2.8125,4.25,-1.5625,"(0.0, 0.0, 0.0, 0.0, 0.0, 0.0, 0.0, 0.0, 0.0)",0.2470703125,0.927734375,0.0205078125,"(0.0, 0.0, 0.0, 0.0, 0.0, 0.0, 0.0, 0.0, 0.0)"
2022/11/28/23:03:59.624454,5432,1669698239,624056100,RL_myo,0.7086678016346663,0.6633765433389796,-0.2335979049832789,-0.05615627713211826,"(0.0, 0.0, 0.0, 0.0, 0.0, 0.0, 0.0, 0.0, 0.0)",3.375,2.8125,-2.125,"(0.0, 0.0, 0.0, 0.0, 0.0, 0.0, 0.0, 0.0, 0.0)",0.24462890625,0.982421875,0.0263671875,"(0.0, 0.0, 0.0, 0.0, 0.0, 0.0, 0.0, 0.0, 0.0)"
2022/11/28/23:03:59.646917,5433,1669698239,646540880,RL_myo,0.7095175834454286,0.6627006541179472,-0.23280282719037032,-0.05670525077604983,"(0.0, 0.0, 0.0, 0.0, 0.0, 0.0, 0.0, 0.0, 0.0)",-7.5625,1.9375,-2.25,"(0.0, 0.0, 0.0, 0.0, 0.0, 0.0, 0.0, 0.0, 0.0)",0.234375,0.9951171875,0.0068359375,"(0.0, 0.0, 0.0, 0.0, 0.0, 0.0, 0.0, 0.0, 0.0)"
2022/11/28/23:03:59.666007,5434,1669698239,665603876,RL_myo,0.7108993757128784,0.6613982686721689,-0.2322462543648581,-0.056886598966635414,"(0.0, 0.0, 0.0, 0.0, 0.0, 0.0, 0.0, 0.0, 0.0)",-10.8125,2.875,-0.625,"(0.0, 0.0, 0.0, 0.0, 0.0, 0.0, 0.0, 0.0, 0.0)",0.244140625,0.93212890625,0.017578125,"(0.0, 0.0, 0.0, 0.0, 0.0, 0.0, 0.0, 0.0, 0.0)"
2022/11/28/23:03:59.685354,5435,1669698239,685015439,RL_myo,0.7112531855948434,0.6611425818556032,-0.23187598490301295,-0.0569466422517797,"(0.0, 0.0, 0.0, 0.0, 0.0, 0.0, 0.0, 0.0, 0.0)",-1.0,1.375,-2.0625,"(0.0, 0.0, 0.0, 0.0, 0.0, 0.0, 0.0, 0.0, 0.0)",0.24755859375,0.89892578125,0.0419921875,"(0.0, 0.0, 0.0, 0.0, 0.0, 0.0, 0.0, 0.0, 0.0)"
2022/11/28/23:03:59.706700,5436,1669698239,706290721,RL_myo,0.7105721242190783,0.6619880827418075,-0.23150661975287443,-0.057128973395383725,"(0.0, 0.0, 0.0, 0.0, 0.0, 0.0, 0.0, 0.0, 0.0)",6.8125,-0.3125,-2.0,"(0.0, 0.0, 0.0, 0.0, 0.0, 0.0, 0.0, 0.0, 0.0)",0.22509765625,0.94091796875,0.0322265625,"(0.0, 0.0, 0.0, 0.0, 0.0, 0.0, 0.0, 0.0, 0.0)"
2022/11/28/23:03:59.725861,5437,1669698239,725483179,RL_myo,0.7100127483984484,0.6626460107129948,-0.23127908387910256,-0.057377233794235,"(0.0, 0.0, 0.0, 0.0, 0.0, 0.0, 0.0, 0.0, 0.0)",4.4375,-0.5625,-1.6875,"(0.0, 0.0, 0.0, 0.0, 0.0, 0.0, 0.0, 0.0, 0.0)",0.23583984375,0.9755859375,0.01611328125,"(0.0, 0.0, 0.0, 0.0, 0.0, 0.0, 0.0, 0.0, 0.0)"
2022/11/28/23:03:59.748785,5438,1669698239,748369693,RL_myo,0.7106476235271402,0.6620015567100714,-0.2311451129689324,-0.0574963550083798,"(0.0, 0.0, 0.0, 0.0, 0.0, 0.0, 0.0, 0.0, 0.0)",-6.6875,1.1875,-1.0625,"(0.0, 0.0, 0.0, 0.0, 0.0, 0.0, 0.0, 0.0, 0.0)",0.27294921875,0.98095703125,-0.00537109375,"(0.0, 0.0, 0.0, 0.0, 0.0, 0.0, 0.0, 0.0, 0.0)"
2022/11/28/23:03:59.766782,5439,1669698239,766483306,RL_myo,0.7121642069309713,0.6604669937607165,-0.23077587130665086,-0.05786181592137134,"(0.0, 0.0, 0.0, 0.0, 0.0, 0.0, 0.0, 0.0, 0.0)",-16.875,2.75,-3.3125,"(0.0, 0.0, 0.0, 0.0, 0.0, 0.0, 0.0, 0.0, 0.0)",0.2978515625,0.99169921875,-0.03955078125,"(0.0, 0.0, 0.0, 0.0, 0.0, 0.0, 0.0, 0.0, 0.0)"
2022/11/28/23:03:59.785872,5440,1669698239,785462379,RL_myo,0.7133262869629168,0.6593705722649431,-0.2301052538590054,-0.05871651305367724,"(0.0, 0.0, 0.0, 0.0, 0.0, 0.0, 0.0, 0.0, 0.0)",-19.125,2.875,-8.625,"(0.0, 0.0, 0.0, 0.0, 0.0, 0.0, 0.0, 0.0, 0.0)",0.32958984375,1.0087890625,-0.103515625,"(0.0, 0.0, 0.0, 0.0, 0.0, 0.0, 0.0, 0.0, 0.0)"
2022/11/28/23:03:59.808494,5441,1669698239,808022737,RL_myo,0.7133931457945082,0.6595590634373251,-0.22900847732896942,-0.06005979256175531,"(0.0, 0.0, 0.0, 0.0, 0.0, 0.0, 0.0, 0.0, 0.0)",-16.5,3.9375,-19.625,"(0.0, 0.0, 0.0, 0.0, 0.0, 0.0, 0.0, 0.0, 0.0)",0.412109375,1.05810546875,-0.19091796875,"(0.0, 0.0, 0.0, 0.0, 0.0, 0.0, 0.0, 0.0, 0.0)"
2022/11/28/23:03:59.826533,5442,1669698239,826178789,RL_myo,0.7132133181138073,0.6607217944871172,-0.2254694049732481,-0.06274568173050868,"(0.0, 0.0, 0.0, 0.0, 0.0, 0.0, 0.0, 0.0, 0.0)",-23.5625,10.5,-35.9375,"(0.0, 0.0, 0.0, 0.0, 0.0, 0.0, 0.0, 0.0, 0.0)",0.423828125,1.14453125,-0.32373046875,"(0.0, 0.0, 0.0, 0.0, 0.0, 0.0, 0.0, 0.0, 0.0)"
2022/11/28/23:03:59.846133,5443,1669698239,845572233,RL_myo,0.7146904896584221,0.6606721205963584,-0.2193695123266179,-0.06787392813222011,"(0.0, 0.0, 0.0, 0.0, 0.0, 0.0, 0.0, 0.0, 0.0)",-44.5,14.8125,-53.6875,"(0.0, 0.0, 0.0, 0.0, 0.0, 0.0, 0.0, 0.0, 0.0)",0.42626953125,1.203125,-0.3916015625,"(0.0, 0.0, 0.0, 0.0, 0.0, 0.0, 0.0, 0.0, 0.0)"
2022/11/28/23:03:59.869102,5444,1669698239,868579149,RL_myo,0.7172988885427776,0.659680597972289,-0.211368792633053,-0.07501364312619756,"(0.0, 0.0, 0.0, 0.0, 0.0, 0.0, 0.0, 0.0, 0.0)",-57.5625,16.125,-72.1875,"(0.0, 0.0, 0.0, 0.0, 0.0, 0.0, 0.0, 0.0, 0.0)",0.45703125,1.150390625,-0.412109375,"(0.0, 0.0, 0.0, 0.0, 0.0, 0.0, 0.0, 0.0, 0.0)"
2022/11/28/23:03:59.886329,5445,1669698239,885980606,RL_myo,0.7187790237483971,0.659999794819244,-0.20185141232472395,-0.0837436158782949,"(0.0, 0.0, 0.0, 0.0, 0.0, 0.0, 0.0, 0.0, 0.0)",-49.75,14.875,-91.25,"(0.0, 0.0, 0.0, 0.0, 0.0, 0.0, 0.0, 0.0, 0.0)",0.47900390625,1.08349609375,-0.388671875,"(0.0, 0.0, 0.0, 0.0, 0.0, 0.0, 0.0, 0.0, 0.0)"
2022/11/28/23:03:59.905885,5446,1669698239,905465602,RL_myo,0.7213500266159957,0.6593962038866645,-0.18854715114374773,-0.0964404334111756,"(0.0, 0.0, 0.0, 0.0, 0.0, 0.0, 0.0, 0.0, 0.0)",-40.125,10.9375,-106.25,"(0.0, 0.0, 0.0, 0.0, 0.0, 0.0, 0.0, 0.0, 0.0)",0.4833984375,1.078125,-0.35107421875,"(0.0, 0.0, 0.0, 0.0, 0.0, 0.0, 0.0, 0.0, 0.0)"
2022/11/28/23:03:59.930957,5447,1669698239,930549860,RL_myo,0.722621976279044,0.659448249997364,-0.17420078725402413,-0.11224780930628954,"(0.0, 0.0, 0.0, 0.0, 0.0, 0.0, 0.0, 0.0, 0.0)",-36.375,2.125,-125.25,"(0.0, 0.0, 0.0, 0.0, 0.0, 0.0, 0.0, 0.0, 0.0)",0.48779296875,1.11376953125,-0.302734375,"(0.0, 0.0, 0.0, 0.0, 0.0, 0.0, 0.0, 0.0, 0.0)"
2022/11/28/23:03:59.955189,5448,1669698239,954835891,RL_myo,0.7241951825096115,0.6577877355167369,-0.1596098105573227,-0.13183831388291284,"(0.0, 0.0, 0.0, 0.0, 0.0, 0.0, 0.0, 0.0, 0.0)",-47.5,-12.0,-140.9375,"(0.0, 0.0, 0.0, 0.0, 0.0, 0.0, 0.0, 0.0, 0.0)",0.4736328125,1.11083984375,-0.24169921875,"(0.0, 0.0, 0.0, 0.0, 0.0, 0.0, 0.0, 0.0, 0.0)"
2022/11/28/23:03:59.969346,5449,1669698239,969091892,RL_myo,0.7230008095718186,0.6573234038226183,-0.14643131634975035,-0.15412216497837417,"(0.0, 0.0, 0.0, 0.0, 0.0, 0.0, 0.0, 0.0, 0.0)",-33.0,-30.0,-148.75,"(0.0, 0.0, 0.0, 0.0, 0.0, 0.0, 0.0, 0.0, 0.0)",0.36279296875,1.04931640625,-0.212890625,"(0.0, 0.0, 0.0, 0.0, 0.0, 0.0, 0.0, 0.0, 0.0)"
2022/11/28/23:03:59.988540,5450,1669698239,988080978,RL_myo,0.7181977579457733,0.6584445833873547,-0.13604680908142508,-0.1792595236752559,"(0.0, 0.0, 0.0, 0.0, 0.0, 0.0, 0.0, 0.0, 0.0)",-11.75,-54.375,-153.625,"(0.0, 0.0, 0.0, 0.0, 0.0, 0.0, 0.0, 0.0, 0.0)",0.25341796875,1.00048828125,-0.1533203125,"(0.0, 0.0, 0.0, 0.0, 0.0, 0.0, 0.0, 0.0, 0.0)"
2022/11/28/23:04:00.006929,5451,1669698240,6600618,RL_myo,0.7109473299207427,0.6593108737812382,-0.1301897883517294,-0.20715618455966694,"(0.0, 0.0, 0.0, 0.0, 0.0, 0.0, 0.0, 0.0, 0.0)",0.1875,-85.5625,-151.5625,"(0.0, 0.0, 0.0, 0.0, 0.0, 0.0, 0.0, 0.0, 0.0)",0.28515625,0.97705078125,-0.08056640625,"(0.0, 0.0, 0.0, 0.0, 0.0, 0.0, 0.0, 0.0, 0.0)"
2022/11/28/23:04:00.027772,5452,1669698240,27428150,RL_myo,0.7026089688338081,0.6585394982840723,-0.1276305580602461,-0.23743800614746882,"(0.0, 0.0, 0.0, 0.0, 0.0, 0.0, 0.0, 0.0, 0.0)",0.9375,-110.5625,-150.5,"(0.0, 0.0, 0.0, 0.0, 0.0, 0.0, 0.0, 0.0, 0.0)",0.35205078125,0.92333984375,-0.0224609375,"(0.0, 0.0, 0.0, 0.0, 0.0, 0.0, 0.0, 0.0, 0.0)"
2022/11/28/23:04:00.048603,5453,1669698240,48202276,RL_myo,0.6933184718686702,0.6562690562137461,-0.12701784839851243,-0.26923389201626063,"(0.0, 0.0, 0.0, 0.0, 0.0, 0.0, 0.0, 0.0, 0.0)",1.625,-126.9375,-147.8125,"(0.0, 0.0, 0.0, 0.0, 0.0, 0.0, 0.0, 0.0, 0.0)",0.21240234375,0.82763671875,0.0654296875,"(0.0, 0.0, 0.0, 0.0, 0.0, 0.0, 0.0, 0.0, 0.0)"
2022/11/28/23:04:00.066990,5454,1669698240,66684246,RL_myo,0.6806331022366461,0.6543257874609314,-0.13043789251903082,-0.3026256767006808,"(0.0, 0.0, 0.0, 0.0, 0.0, 0.0, 0.0, 0.0, 0.0)",22.375,-150.875,-139.8125,"(0.0, 0.0, 0.0, 0.0, 0.0, 0.0, 0.0, 0.0, 0.0)",-0.03662109375,0.736328125,0.17041015625,"(0.0, 0.0, 0.0, 0.0, 0.0, 0.0, 0.0, 0.0, 0.0)"
2022/11/28/23:04:00.087608,5455,1669698240,87295055,RL_myo,0.6657919791482357,0.6499833870507483,-0.1406293289290003,-0.3383282857002815,"(0.0, 0.0, 0.0, 0.0, 0.0, 0.0, 0.0, 0.0, 0.0)",32.125,-191.6875,-126.0625,"(0.0, 0.0, 0.0, 0.0, 0.0, 0.0, 0.0, 0.0, 0.0)",-0.04541015625,0.662109375,0.22021484375,"(0.0, 0.0, 0.0, 0.0, 0.0, 0.0, 0.0, 0.0, 0.0)"
2022/11/28/23:04:00.108515,5456,1669698240,108040094,RL_myo,0.6508356154165537,0.6405814295973676,-0.15716981240716738,-0.37598681337015577,"(0.0, 0.0, 0.0, 0.0, 0.0, 0.0, 0.0, 0.0, 0.0)",24.875,-232.375,-108.625,"(0.0, 0.0, 0.0, 0.0, 0.0, 0.0, 0.0, 0.0, 0.0)",0.14453125,0.603515625,0.26904296875,"(0.0, 0.0, 0.0, 0.0, 0.0, 0.0, 0.0, 0.0, 0.0)"
2022/11/28/23:04:00.126665,5457,1669698240,126302242,RL_myo,0.6371149891996444,0.6256398389822145,-0.17719341000637745,-0.4138378642243331,"(0.0, 0.0, 0.0, 0.0, 0.0, 0.0, 0.0, 0.0, 0.0)",7.375,-256.3125,-90.4375,"(0.0, 0.0, 0.0, 0.0, 0.0, 0.0, 0.0, 0.0, 0.0)",0.26123046875,0.51806640625,0.2919921875,"(0.0, 0.0, 0.0, 0.0, 0.0, 0.0, 0.0, 0.0, 0.0)"
2022/11/28/23:04:00.153618,5458,1669698240,153174877,RL_myo,0.6234783726969827,0.6071818748496901,-0.20050185553691516,-0.44989320461570825,"(0.0, 0.0, 0.0, 0.0, 0.0, 0.0, 0.0, 0.0, 0.0)",3.875,-269.9375,-67.6875,"(0.0, 0.0, 0.0, 0.0, 0.0, 0.0, 0.0, 0.0, 0.0)",0.2392578125,0.40673828125,0.2822265625,"(0.0, 0.0, 0.0, 0.0, 0.0, 0.0, 0.0, 0.0, 0.0)"
2022/11/28/23:04:00.168550,5459,1669698240,168081521,RL_myo,0.6099072714879509,0.5842732222509911,-0.22771580405499298,-0.48454456402910456,"(0.0, 0.0, 0.0, 0.0, 0.0, 0.0, 0.0, 0.0, 0.0)",0.5,-290.1875,-43.0,"(0.0, 0.0, 0.0, 0.0, 0.0, 0.0, 0.0, 0.0, 0.0)",0.2294921875,0.36669921875,0.37939453125,"(0.0, 0.0, 0.0, 0.0, 0.0, 0.0, 0.0, 0.0, 0.0)"
2022/11/28/23:04:00.186648,5460,1669698240,186288833,RL_myo,0.5952751881326976,0.5584710316224939,-0.26019256915920125,-0.5158075069116608,"(0.0, 0.0, 0.0, 0.0, 0.0, 0.0, 0.0, 0.0, 0.0)",15.0,-306.1875,-12.625,"(0.0, 0.0, 0.0, 0.0, 0.0, 0.0, 0.0, 0.0, 0.0)",0.2578125,0.25732421875,0.47314453125,"(0.0, 0.0, 0.0, 0.0, 0.0, 0.0, 0.0, 0.0, 0.0)"
2022/11/28/23:04:00.207611,5461,1669698240,207145690,RL_myo,0.5800253980369422,0.5300368890405983,-0.29877136939817234,-0.5416337348395059,"(0.0, 0.0, 0.0, 0.0, 0.0, 0.0, 0.0, 0.0, 0.0)",35.25,-318.1875,27.75,"(0.0, 0.0, 0.0, 0.0, 0.0, 0.0, 0.0, 0.0, 0.0)",0.28369140625,0.1943359375,0.52392578125,"(0.0, 0.0, 0.0, 0.0, 0.0, 0.0, 0.0, 0.0, 0.0)"
2022/11/28/23:04:00.230235,5462,1669698240,229821681,RL_myo,0.5652434119151147,0.497555803253646,-0.3430766891669215,-0.5614592534507225,"(0.0, 0.0, 0.0, 0.0, 0.0, 0.0, 0.0, 0.0, 0.0)",50.5,-330.875,74.1875,"(0.0, 0.0, 0.0, 0.0, 0.0, 0.0, 0.0, 0.0, 0.0)",0.27490234375,0.22998046875,0.65087890625,"(0.0, 0.0, 0.0, 0.0, 0.0, 0.0, 0.0, 0.0, 0.0)"
2022/11/28/23:04:00.246644,5463,1669698240,246325731,RL_myo,0.5532226634632026,0.45983887318311656,-0.39147949729181175,-0.5737915113876398,"(0.0, 0.0, 0.0, 0.0, 0.0, 0.0, 0.0, 0.0, 0.0)",53.5,-334.6875,129.125,"(0.0, 0.0, 0.0, 0.0, 0.0, 0.0, 0.0, 0.0, 0.0)",0.29150390625,0.265625,0.677734375,"(0.0, 0.0, 0.0, 0.0, 0.0, 0.0, 0.0, 0.0, 0.0)"
2022/11/28/23:04:00.269355,5464,1669698240,268894910,RL_myo,0.5449822300339746,0.4179682283875751,-0.4434808918609989,-0.5758659805544349,"(0.0, 0.0, 0.0, 0.0, 0.0, 0.0, 0.0, 0.0, 0.0)",67.25,-325.0,191.3125,"(0.0, 0.0, 0.0, 0.0, 0.0, 0.0, 0.0, 0.0, 0.0)",0.4130859375,0.314453125,0.755859375,"(0.0, 0.0, 0.0, 0.0, 0.0, 0.0, 0.0, 0.0, 0.0)"
2022/11/28/23:04:00.288397,5465,1669698240,288017034,RL_myo,0.541555558319831,0.37145352506869056,-0.49632929113680446,-0.5678002207877142,"(0.0, 0.0, 0.0, 0.0, 0.0, 0.0, 0.0, 0.0, 0.0)",70.6875,-307.4375,250.9375,"(0.0, 0.0, 0.0, 0.0, 0.0, 0.0, 0.0, 0.0, 0.0)",0.5859375,0.31591796875,0.82275390625,"(0.0, 0.0, 0.0, 0.0, 0.0, 0.0, 0.0, 0.0, 0.0)"
2022/11/28/23:04:00.306381,5466,1669698240,306123256,RL_myo,0.5411237408191099,0.32298971761952733,-0.5487529386086867,-0.5493022408495363,"(0.0, 0.0, 0.0, 0.0, 0.0, 0.0, 0.0, 0.0, 0.0)",87.25,-282.6875,294.3125,"(0.0, 0.0, 0.0, 0.0, 0.0, 0.0, 0.0, 0.0, 0.0)",0.818359375,0.31005859375,0.83642578125,"(0.0, 0.0, 0.0, 0.0, 0.0, 0.0, 0.0, 0.0, 0.0)"
2022/11/28/23:04:00.329753,5467,1669698240,329360961,RL_myo,0.5404061280287159,0.27764936485234115,-0.5997934289742706,-0.5206917413838915,"(0.0, 0.0, 0.0, 0.0, 0.0, 0.0, 0.0, 0.0, 0.0)",125.6875,-253.1875,311.1875,"(0.0, 0.0, 0.0, 0.0, 0.0, 0.0, 0.0, 0.0, 0.0)",1.01171875,0.34375,0.876953125,"(0.0, 0.0, 0.0, 0.0, 0.0, 0.0, 0.0, 0.0, 0.0)"
2022/11/28/23:04:00.348847,5468,1669698240,348170042,RL_myo,0.5403452507924877,0.23486372134299024,-0.6479504328942787,-0.48272795532788715,"(0.0, 0.0, 0.0, 0.0, 0.0, 0.0, 0.0, 0.0, 0.0)",155.625,-222.1875,328.25,"(0.0, 0.0, 0.0, 0.0, 0.0, 0.0, 0.0, 0.0, 0.0)",1.09619140625,0.35400390625,0.85693359375,"(0.0, 0.0, 0.0, 0.0, 0.0, 0.0, 0.0, 0.0, 0.0)"
2022/11/28/23:04:00.366856,5469,1669698240,366554737,RL_myo,0.5407022824106813,0.19445507074844007,-0.6891985746677292,-0.44139958306739435,"(0.0, 0.0, 0.0, 0.0, 0.0, 0.0, 0.0, 0.0, 0.0)",152.75,-189.1875,319.0,"(0.0, 0.0, 0.0, 0.0, 0.0, 0.0, 0.0, 0.0, 0.0)",1.31982421875,0.22314453125,0.66943359375,"(0.0, 0.0, 0.0, 0.0, 0.0, 0.0, 0.0, 0.0, 0.0)"
2022/11/28/23:04:00.389398,5470,1669698240,389101743,RL_myo,0.5371576474950609,0.1641196357361912,-0.7251414623211928,-0.3983669997955076,"(0.0, 0.0, 0.0, 0.0, 0.0, 0.0, 0.0, 0.0, 0.0)",178.9375,-162.0,268.9375,"(0.0, 0.0, 0.0, 0.0, 0.0, 0.0, 0.0, 0.0, 0.0)",1.43994140625,0.27880859375,0.51220703125,"(0.0, 0.0, 0.0, 0.0, 0.0, 0.0, 0.0, 0.0, 0.0)"
2022/11/28/23:04:00.408365,5471,1669698240,407993555,RL_myo,0.5330632928565556,0.14440436809006305,-0.7548576604133136,-0.35380901175743684,"(0.0, 0.0, 0.0, 0.0, 0.0, 0.0, 0.0, 0.0, 0.0)",200.375,-117.0,230.6875,"(0.0, 0.0, 0.0, 0.0, 0.0, 0.0, 0.0, 0.0, 0.0)",1.26953125,0.640625,0.11962890625,"(0.0, 0.0, 0.0, 0.0, 0.0, 0.0, 0.0, 0.0, 0.0)"
2022/11/28/23:04:00.426822,5472,1669698240,426458358,RL_myo,0.5327115613884925,0.12951580353647812,-0.7759961951756753,-0.3118877267065991,"(0.0, 0.0, 0.0, 0.0, 0.0, 0.0, 0.0, 0.0, 0.0)",182.6875,-66.1875,207.25,"(0.0, 0.0, 0.0, 0.0, 0.0, 0.0, 0.0, 0.0, 0.0)",1.17431640625,0.81494140625,-0.00244140625,"(0.0, 0.0, 0.0, 0.0, 0.0, 0.0, 0.0, 0.0, 0.0)"
2022/11/28/23:04:00.449324,5473,1669698240,448973655,RL_myo,0.5376681194678973,0.1232931775826033,-0.7892594452082392,-0.26978012124510226,"(0.0, 0.0, 0.0, 0.0, 0.0, 0.0, 0.0, 0.0, 0.0)",190.125,-2.0625,171.75,"(0.0, 0.0, 0.0, 0.0, 0.0, 0.0, 0.0, 0.0, 0.0)",1.33984375,0.72021484375,-0.1943359375,"(0.0, 0.0, 0.0, 0.0, 0.0, 0.0, 0.0, 0.0, 0.0)"
2022/11/28/23:04:00.468330,5474,1669698240,468016862,RL_myo,0.548146921423347,0.12420431857215357,-0.795090741051324,-0.2279011919156862,"(0.0, 0.0, 0.0, 0.0, 0.0, 0.0, 0.0, 0.0, 0.0)",197.625,56.5,148.5,"(0.0, 0.0, 0.0, 0.0, 0.0, 0.0, 0.0, 0.0, 0.0)",1.33056640625,1.04248046875,-0.20166015625,"(0.0, 0.0, 0.0, 0.0, 0.0, 0.0, 0.0, 0.0, 0.0)"
2022/11/28/23:04:00.486750,5475,1669698240,486420392,RL_myo,0.5632338927219597,0.12530550300803894,-0.7940694564708166,-0.1911015732674963,"(0.0, 0.0, 0.0, 0.0, 0.0, 0.0, 0.0, 0.0, 0.0)",163.8125,95.75,136.9375,"(0.0, 0.0, 0.0, 0.0, 0.0, 0.0, 0.0, 0.0, 0.0)",1.3291015625,1.208984375,-0.20654296875,"(0.0, 0.0, 0.0, 0.0, 0.0, 0.0, 0.0, 0.0, 0.0)"
2022/11/28/23:04:00.509115,5476,1669698240,508832216,RL_myo,0.5802584603449629,0.12817321623271505,-0.7885094192906885,-0.1585075440744576,"(0.0, 0.0, 0.0, 0.0, 0.0, 0.0, 0.0, 0.0, 0.0)",143.25,120.1875,115.625,"(0.0, 0.0, 0.0, 0.0, 0.0, 0.0, 0.0, 0.0, 0.0)",1.28125,1.1943359375,-0.3017578125,"(0.0, 0.0, 0.0, 0.0, 0.0, 0.0, 0.0, 0.0, 0.0)"
2022/11/28/23:04:00.535971,5477,1669698240,535605669,RL_myo,0.595101190051604,0.13531685521481088,-0.7816883016400915,-0.12848082103165398,"(0.0, 0.0, 0.0, 0.0, 0.0, 0.0, 0.0, 0.0, 0.0)",145.375,118.375,85.8125,"(0.0, 0.0, 0.0, 0.0, 0.0, 0.0, 0.0, 0.0, 0.0)",1.2216796875,1.12109375,-0.3603515625,"(0.0, 0.0, 0.0, 0.0, 0.0, 0.0, 0.0, 0.0, 0.0)"
2022/11/28/23:04:00.546299,5478,1669698240,545985460,RL_myo,0.6086250679798962,0.14373365775096827,-0.7737814492427922,-0.10088821072711276,"(0.0, 0.0, 0.0, 0.0, 0.0, 0.0, 0.0, 0.0, 0.0)",138.3125,116.75,70.5,"(0.0, 0.0, 0.0, 0.0, 0.0, 0.0, 0.0, 0.0, 0.0)",1.134765625,1.05712890625,-0.412109375,"(0.0, 0.0, 0.0, 0.0, 0.0, 0.0, 0.0, 0.0, 0.0)"
2022/11/28/23:04:00.569186,5479,1669698240,568893909,RL_myo,0.622615820422581,0.1493521137706162,-0.7643385863299659,-0.07635451341521898,"(0.0, 0.0, 0.0, 0.0, 0.0, 0.0, 0.0, 0.0, 0.0)",112.5,121.25,69.9375,"(0.0, 0.0, 0.0, 0.0, 0.0, 0.0, 0.0, 0.0, 0.0)",1.00537109375,0.87646484375,-0.40673828125,"(0.0, 0.0, 0.0, 0.0, 0.0, 0.0, 0.0, 0.0, 0.0)"
2022/11/28/23:04:00.588481,5480,1669698240,588071107,RL_myo,0.6356713912734485,0.15350106087880203,-0.7544439815200286,-0.05633458417142516,"(0.0, 0.0, 0.0, 0.0, 0.0, 0.0, 0.0, 0.0, 0.0)",87.4375,115.125,58.0625,"(0.0, 0.0, 0.0, 0.0, 0.0, 0.0, 0.0, 0.0, 0.0)",0.916015625,0.74169921875,-0.41796875,"(0.0, 0.0, 0.0, 0.0, 0.0, 0.0, 0.0, 0.0, 0.0)"
2022/11/28/23:04:00.606486,5481,1669698240,606148958,RL_myo,0.6441249595387873,0.15906279205515775,-0.746667358100823,-0.04785311932894999,"(0.0, 0.0, 0.0, 0.0, 0.0, 0.0, 0.0, 0.0, 0.0)",47.1875,91.25,30.6875,"(0.0, 0.0, 0.0, 0.0, 0.0, 0.0, 0.0, 0.0, 0.0)",0.93310546875,0.6875,-0.42431640625,"(0.0, 0.0, 0.0, 0.0, 0.0, 0.0, 0.0, 0.0, 0.0)"
2022/11/28/23:04:00.629023,5482,1669698240,628655910,RL_myo,0.6506974454923523,0.1616825375770792,-0.7407245285146973,-0.04217539957182398,"(0.0, 0.0, 0.0, 0.0, 0.0, 0.0, 0.0, 0.0, 0.0)",23.6875,73.25,20.5,"(0.0, 0.0, 0.0, 0.0, 0.0, 0.0, 0.0, 0.0, 0.0)",0.93017578125,0.4794921875,-0.40234375,"(0.0, 0.0, 0.0, 0.0, 0.0, 0.0, 0.0, 0.0, 0.0)"
2022/11/28/23:04:00.648583,5483,1669698240,648113250,RL_myo,0.6546512909514989,0.16955260919851425,-0.7360707224384744,-0.02972358555783889,"(0.0, 0.0, 0.0, 0.0, 0.0, 0.0, 0.0, 0.0, 0.0)",72.5625,61.875,6.4375,"(0.0, 0.0, 0.0, 0.0, 0.0, 0.0, 0.0, 0.0, 0.0)",0.97607421875,0.2216796875,-0.361328125,"(0.0, 0.0, 0.0, 0.0, 0.0, 0.0, 0.0, 0.0, 0.0)"
2022/11/28/23:04:00.671026,5484,1669698240,670581102,RL_myo,0.6581371042254108,0.1847520184077083,-0.7297918348533096,-0.011230383675922804,"(0.0, 0.0, 0.0, 0.0, 0.0, 0.0, 0.0, 0.0, 0.0)",129.3125,62.6875,-2.125,"(0.0, 0.0, 0.0, 0.0, 0.0, 0.0, 0.0, 0.0, 0.0)",1.03515625,0.16259765625,-0.3681640625,"(0.0, 0.0, 0.0, 0.0, 0.0, 0.0, 0.0, 0.0, 0.0)"
2022/11/28/23:04:00.688840,5485,1669698240,688585519,RL_myo,0.6590741080292599,0.20404563281550434,-0.7238340291830888,0.007141291965125338,"(0.0, 0.0, 0.0, 0.0, 0.0, 0.0, 0.0, 0.0, 0.0)",147.5625,51.4375,-15.5625,"(0.0, 0.0, 0.0, 0.0, 0.0, 0.0, 0.0, 0.0, 0.0)",0.97509765625,0.38818359375,-0.4033203125,"(0.0, 0.0, 0.0, 0.0, 0.0, 0.0, 0.0, 0.0, 0.0)"
2022/11/28/23:04:00.716207,5486,1669698240,715672254,RL_myo,0.6579648989306282,0.22027785902046723,-0.7197940680045359,0.021362496718526885,"(0.0, 0.0, 0.0, 0.0, 0.0, 0.0, 0.0, 0.0, 0.0)",120.8125,30.625,-16.6875,"(0.0, 0.0, 0.0, 0.0, 0.0, 0.0, 0.0, 0.0, 0.0)",0.97509765625,0.365234375,-0.3779296875,"(0.0, 0.0, 0.0, 0.0, 0.0, 0.0, 0.0, 0.0, 0.0)"
2022/11/28/23:04:00.731409,5487,1669698240,730776548,RL_myo,0.6560650676192521,0.2319939828840615,-0.7174662638258729,0.03161612289764374,"(0.0, 0.0, 0.0, 0.0, 0.0, 0.0, 0.0, 0.0, 0.0)",87.0,20.8125,-11.75,"(0.0, 0.0, 0.0, 0.0, 0.0, 0.0, 0.0, 0.0, 0.0)",0.994140625,0.2724609375,-0.26806640625,"(0.0, 0.0, 0.0, 0.0, 0.0, 0.0, 0.0, 0.0, 0.0)"
2022/11/28/23:04:00.750651,5488,1669698240,750358343,RL_myo,0.6555107931520312,0.24029292296457608,-0.7148363509680251,0.03967244092633336,"(0.0, 0.0, 0.0, 0.0, 0.0, 0.0, 0.0, 0.0, 0.0)",64.4375,20.0625,-9.25,"(0.0, 0.0, 0.0, 0.0, 0.0, 0.0, 0.0, 0.0, 0.0)",0.99560546875,0.24072265625,-0.1904296875,"(0.0, 0.0, 0.0, 0.0, 0.0, 0.0, 0.0, 0.0, 0.0)"
2022/11/28/23:04:00.768559,5489,1669698240,768115520,RL_myo,0.6552323462715833,0.24616227783076813,-0.712912324587992,0.04278694687809781,"(0.0, 0.0, 0.0, 0.0, 0.0, 0.0, 0.0, 0.0, 0.0)",33.875,15.25,-14.4375,"(0.0, 0.0, 0.0, 0.0, 0.0, 0.0, 0.0, 0.0, 0.0)",0.96826171875,0.27197265625,-0.23388671875,"(0.0, 0.0, 0.0, 0.0, 0.0, 0.0, 0.0, 0.0, 0.0)"
2022/11/28/23:04:00.791157,5490,1669698240,790683507,RL_myo,0.656606525874267,0.2460290858709026,-0.7118425275396519,0.04022157469335768,"(0.0, 0.0, 0.0, 0.0, 0.0, 0.0, 0.0, 0.0, 0.0)",-14.1875,11.625,-9.75,"(0.0, 0.0, 0.0, 0.0, 0.0, 0.0, 0.0, 0.0, 0.0)",0.9228515625,0.27197265625,-0.212890625,"(0.0, 0.0, 0.0, 0.0, 0.0, 0.0, 0.0, 0.0, 0.0)"
2022/11/28/23:04:00.809438,5491,1669698240,809080839,RL_myo,0.6588275203527927,0.24219266266072645,-0.7113188736512364,0.03625565565032044,"(0.0, 0.0, 0.0, 0.0, 0.0, 0.0, 0.0, 0.0, 0.0)",-34.5625,7.25,-5.25,"(0.0, 0.0, 0.0, 0.0, 0.0, 0.0, 0.0, 0.0, 0.0)",0.908203125,0.18896484375,-0.140625,"(0.0, 0.0, 0.0, 0.0, 0.0, 0.0, 0.0, 0.0, 0.0)"
2022/11/28/23:04:00.832568,5492,1669698240,832231760,RL_myo,0.6610933798377437,0.23694621923461556,-0.7112048806083824,0.03161724409158446,"(0.0, 0.0, 0.0, 0.0, 0.0, 0.0, 0.0, 0.0, 0.0)",-42.0,1.875,-2.125,"(0.0, 0.0, 0.0, 0.0, 0.0, 0.0, 0.0, 0.0, 0.0)",0.93994140625,0.18505859375,-0.08544921875,"(0.0, 0.0, 0.0, 0.0, 0.0, 0.0, 0.0, 0.0, 0.0)"
2022/11/28/23:04:00.851235,5493,1669698240,850639104,RL_myo,0.6636341871398627,0.23150597551931384,-0.7108142870809199,0.027160600871630546,"(0.0, 0.0, 0.0, 0.0, 0.0, 0.0, 0.0, 0.0, 0.0)",-41.9375,3.375,-1.875,"(0.0, 0.0, 0.0, 0.0, 0.0, 0.0, 0.0, 0.0, 0.0)",0.94482421875,0.17431640625,-0.068359375,"(0.0, 0.0, 0.0, 0.0, 0.0, 0.0, 0.0, 0.0, 0.0)"
2022/11/28/23:04:00.869192,5494,1669698240,868888378,RL_myo,0.666079683676126,0.22601420953474707,-0.7104524436901042,0.022644145756789403,"(0.0, 0.0, 0.0, 0.0, 0.0, 0.0, 0.0, 0.0, 0.0)",-42.1875,3.125,0.25,"(0.0, 0.0, 0.0, 0.0, 0.0, 0.0, 0.0, 0.0, 0.0)",0.9326171875,0.20166015625,-0.06005859375,"(0.0, 0.0, 0.0, 0.0, 0.0, 0.0, 0.0, 0.0, 0.0)"
2022/11/28/23:04:00.890816,5495,1669698240,890273094,RL_myo,0.6681081967727596,0.21991538762764962,-0.7105897704027468,0.01818894962893133,"(0.0, 0.0, 0.0, 0.0, 0.0, 0.0, 0.0, 0.0, 0.0)",-43.125,-1.125,4.9375,"(0.0, 0.0, 0.0, 0.0, 0.0, 0.0, 0.0, 0.0, 0.0)",0.939453125,0.22021484375,-0.05029296875,"(0.0, 0.0, 0.0, 0.0, 0.0, 0.0, 0.0, 0.0, 0.0)"
2022/11/28/23:04:00.910895,5496,1669698240,910501480,RL_myo,0.6698154438931664,0.21338388845001913,-0.7110761728955156,0.013611157644266094,"(0.0, 0.0, 0.0, 0.0, 0.0, 0.0, 0.0, 0.0, 0.0)",-45.125,-5.3125,5.5625,"(0.0, 0.0, 0.0, 0.0, 0.0, 0.0, 0.0, 0.0, 0.0)",0.97412109375,0.21044921875,-0.0283203125,"(0.0, 0.0, 0.0, 0.0, 0.0, 0.0, 0.0, 0.0, 0.0)"
2022/11/28/23:04:00.929390,5497,1669698240,929028034,RL_myo,0.6712750701627558,0.20715653647321267,-0.7116199348088352,0.008545054539260393,"(0.0, 0.0, 0.0, 0.0, 0.0, 0.0, 0.0, 0.0, 0.0)",-45.6875,-5.375,1.8125,"(0.0, 0.0, 0.0, 0.0, 0.0, 0.0, 0.0, 0.0, 0.0)",0.9794921875,0.201171875,-0.04541015625,"(0.0, 0.0, 0.0, 0.0, 0.0, 0.0, 0.0, 0.0, 0.0)"
2022/11/28/23:04:00.950052,5498,1669698240,949748516,RL_myo,0.672670268793625,0.20190484068317863,-0.7118549446456808,0.0034179779559425643,"(0.0, 0.0, 0.0, 0.0, 0.0, 0.0, 0.0, 0.0, 0.0)",-41.8125,-5.0625,-0.25,"(0.0, 0.0, 0.0, 0.0, 0.0, 0.0, 0.0, 0.0, 0.0)",0.96533203125,0.23876953125,-0.0400390625,"(0.0, 0.0, 0.0, 0.0, 0.0, 0.0, 0.0, 0.0, 0.0)"
2022/11/28/23:04:00.970902,5499,1669698240,970546245,RL_myo,0.6731551559254373,0.19702102124646945,-0.7127668792181754,-0.002868645600552684,"(0.0, 0.0, 0.0, 0.0, 0.0, 0.0, 0.0, 0.0, 0.0)",-45.25,-8.5,-2.4375,"(0.0, 0.0, 0.0, 0.0, 0.0, 0.0, 0.0, 0.0, 0.0)",0.978515625,0.28662109375,-0.0966796875,"(0.0, 0.0, 0.0, 0.0, 0.0, 0.0, 0.0, 0.0, 0.0)"
2022/11/28/23:04:00.990157,5500,1669698240,989823579,RL_myo,0.6732183389767975,0.19104019954645296,-0.7142339984321382,-0.012268076712088512,"(0.0, 0.0, 0.0, 0.0, 0.0, 0.0, 0.0, 0.0, 0.0)",-62.6875,-11.0625,-7.4375,"(0.0, 0.0, 0.0, 0.0, 0.0, 0.0, 0.0, 0.0, 0.0)",0.97802734375,0.32421875,-0.17041015625,"(0.0, 0.0, 0.0, 0.0, 0.0, 0.0, 0.0, 0.0, 0.0)"
2022/11/28/23:04:01.010583,5501,1669698241,10138988,RL_myo,0.6732108328440193,0.18340875364426817,-0.7158739672191752,-0.025939673976310806,"(0.0, 0.0, 0.0, 0.0, 0.0, 0.0, 0.0, 0.0, 0.0)",-87.8125,-11.3125,-13.5625,"(0.0, 0.0, 0.0, 0.0, 0.0, 0.0, 0.0, 0.0, 0.0)",0.98779296875,0.38916015625,-0.25537109375,"(0.0, 0.0, 0.0, 0.0, 0.0, 0.0, 0.0, 0.0, 0.0)"
2022/11/28/23:04:01.031147,5502,1669698241,30610084,RL_myo,0.674133835697785,0.1740113685445346,-0.7165533029508371,-0.04260257286709406,"(0.0, 0.0, 0.0, 0.0, 0.0, 0.0, 0.0, 0.0, 0.0)",-106.125,-14.8125,-22.5,"(0.0, 0.0, 0.0, 0.0, 0.0, 0.0, 0.0, 0.0, 0.0)",0.9873046875,0.45654296875,-0.27099609375,"(0.0, 0.0, 0.0, 0.0, 0.0, 0.0, 0.0, 0.0, 0.0)"
2022/11/28/23:04:01.048965,5503,1669698241,48601150,RL_myo,0.6738211919197532,0.16454908817170785,-0.7176439832058386,-0.06225521881867285,"(0.0, 0.0, 0.0, 0.0, 0.0, 0.0, 0.0, 0.0, 0.0)",-117.4375,-24.625,-32.9375,"(0.0, 0.0, 0.0, 0.0, 0.0, 0.0, 0.0, 0.0, 0.0)",0.9794921875,0.50341796875,-0.25244140625,"(0.0, 0.0, 0.0, 0.0, 0.0, 0.0, 0.0, 0.0, 0.0)"
2022/11/28/23:04:01.069891,5504,1669698241,69562673,RL_myo,0.6718291329831787,0.15253029920277675,-0.7194376297331451,-0.0882588285903222,"(0.0, 0.0, 0.0, 0.0, 0.0, 0.0, 0.0, 0.0, 0.0)",-151.375,-41.0,-45.0,"(0.0, 0.0, 0.0, 0.0, 0.0, 0.0, 0.0, 0.0, 0.0)",0.99755859375,0.67578125,-0.25146484375,"(0.0, 0.0, 0.0, 0.0, 0.0, 0.0, 0.0, 0.0, 0.0)"
2022/11/28/23:04:01.090907,5505,1669698241,90487480,RL_myo,0.6671838641104634,0.14068784253724437,-0.721566886974101,-0.12005769469447274,"(0.0, 0.0, 0.0, 0.0, 0.0, 0.0, 0.0, 0.0, 0.0)",-172.75,-56.75,-67.0,"(0.0, 0.0, 0.0, 0.0, 0.0, 0.0, 0.0, 0.0, 0.0)",0.94287109375,0.818359375,-0.34228515625,"(0.0, 0.0, 0.0, 0.0, 0.0, 0.0, 0.0, 0.0, 0.0)"
2022/11/28/23:04:01.108995,5506,1669698241,108600139,RL_myo,0.6600277843924233,0.1287829318538943,-0.7233206281518965,-0.1567977971244808,"(0.0, 0.0, 0.0, 0.0, 0.0, 0.0, 0.0, 0.0, 0.0)",-191.6875,-69.625,-87.5625,"(0.0, 0.0, 0.0, 0.0, 0.0, 0.0, 0.0, 0.0, 0.0)",0.87890625,0.8544921875,-0.35107421875,"(0.0, 0.0, 0.0, 0.0, 0.0, 0.0, 0.0, 0.0, 0.0)"
2022/11/28/23:04:01.130260,5507,1669698241,129868268,RL_myo,0.6505648167393963,0.1163924482148446,-0.7238060007235669,-0.19830050563714216,"(0.0, 0.0, 0.0, 0.0, 0.0, 0.0, 0.0, 0.0, 0.0)",-212.875,-79.625,-106.8125,"(0.0, 0.0, 0.0, 0.0, 0.0, 0.0, 0.0, 0.0, 0.0)",0.9423828125,0.92529296875,-0.287109375,"(0.0, 0.0, 0.0, 0.0, 0.0, 0.0, 0.0, 0.0, 0.0)"
2022/11/28/23:04:01.151389,5508,1669698241,150690317,RL_myo,0.6396430320140459,0.10400302734274182,-0.7211853116677449,-0.24480994288247504,"(0.0, 0.0, 0.0, 0.0, 0.0, 0.0, 0.0, 0.0, 0.0)",-236.1875,-77.0625,-129.3125,"(0.0, 0.0, 0.0, 0.0, 0.0, 0.0, 0.0, 0.0, 0.0)",1.0224609375,1.0576171875,-0.291015625,"(0.0, 0.0, 0.0, 0.0, 0.0, 0.0, 0.0, 0.0, 0.0)"
2022/11/28/23:04:01.169490,5509,1669698241,169215917,RL_myo,0.6281560474031651,0.09130600922222454,-0.7130535466198191,-0.2977210648302215,"(0.0, 0.0, 0.0, 0.0, 0.0, 0.0, 0.0, 0.0, 0.0)",-271.125,-64.9375,-157.1875,"(0.0, 0.0, 0.0, 0.0, 0.0, 0.0, 0.0, 0.0, 0.0)",1.11767578125,1.095703125,-0.1708984375,"(0.0, 0.0, 0.0, 0.0, 0.0, 0.0, 0.0, 0.0, 0.0)"
2022/11/28/23:04:01.189770,5510,1669698241,189469337,RL_myo,0.6177973291280329,0.08032219770129334,-0.697814351306145,-0.35345429094847247,"(0.0, 0.0, 0.0, 0.0, 0.0, 0.0, 0.0, 0.0, 0.0)",-288.5,-34.9375,-179.5,"(0.0, 0.0, 0.0, 0.0, 0.0, 0.0, 0.0, 0.0, 0.0)",1.1171875,0.9658203125,-0.0009765625,"(0.0, 0.0, 0.0, 0.0, 0.0, 0.0, 0.0, 0.0, 0.0)"
2022/11/28/23:04:01.211315,5511,1669698241,210699796,RL_myo,0.6102118181877593,0.07708516967104821,-0.676066844375456,-0.4057499667245673,"(0.0, 0.0, 0.0, 0.0, 0.0, 0.0, 0.0, 0.0, 0.0)",-260.5625,14.8125,-200.5625,"(0.0, 0.0, 0.0, 0.0, 0.0, 0.0, 0.0, 0.0, 0.0)",1.1376953125,0.76220703125,0.17529296875,"(0.0, 0.0, 0.0, 0.0, 0.0, 0.0, 0.0, 0.0, 0.0)"
2022/11/28/23:04:01.229466,5512,1669698241,228965044,RL_myo,0.6038822791161115,0.08245855660863821,-0.6499028207022796,-0.4540408605563728,"(0.0, 0.0, 0.0, 0.0, 0.0, 0.0, 0.0, 0.0, 0.0)",-223.6875,56.0,-223.5,"(0.0, 0.0, 0.0, 0.0, 0.0, 0.0, 0.0, 0.0, 0.0)",1.29345703125,0.6669921875,0.4091796875,"(0.0, 0.0, 0.0, 0.0, 0.0, 0.0, 0.0, 0.0, 0.0)"
2022/11/28/23:04:01.251944,5513,1669698241,251502037,RL_myo,0.5995446970521279,0.09631289137211217,-0.6194420370947823,-0.49755557063717265,"(0.0, 0.0, 0.0, 0.0, 0.0, 0.0, 0.0, 0.0, 0.0)",-187.0,103.6875,-241.625,"(0.0, 0.0, 0.0, 0.0, 0.0, 0.0, 0.0, 0.0, 0.0)",1.4765625,0.474609375,0.5234375,"(0.0, 0.0, 0.0, 0.0, 0.0, 0.0, 0.0, 0.0, 0.0)"
2022/11/28/23:04:01.270699,5514,1669698241,270404577,RL_myo,0.599853002778421,0.12139882199087092,-0.5861201043631641,-0.5309443702858653,"(0.0, 0.0, 0.0, 0.0, 0.0, 0.0, 0.0, 0.0, 0.0)",-120.9375,168.75,-238.0625,"(0.0, 0.0, 0.0, 0.0, 0.0, 0.0, 0.0, 0.0, 0.0)",1.478515625,0.34716796875,0.673828125,"(0.0, 0.0, 0.0, 0.0, 0.0, 0.0, 0.0, 0.0, 0.0)"
2022/11/28/23:04:01.289239,5515,1669698241,288936138,RL_myo,0.6033916058403349,0.15667674005585067,-0.5510236109171094,-0.5547467434233061,"(0.0, 0.0, 0.0, 0.0, 0.0, 0.0, 0.0, 0.0, 0.0)",-58.8125,223.8125,-230.0625,"(0.0, 0.0, 0.0, 0.0, 0.0, 0.0, 0.0, 0.0, 0.0)",1.255859375,0.22900390625,0.80615234375,"(0.0, 0.0, 0.0, 0.0, 0.0, 0.0, 0.0, 0.0, 0.0)"
2022/11/28/23:04:01.311478,5516,1669698241,311203479,RL_myo,0.6085090273436239,0.20031360358493217,-0.5161035441542311,-0.5685317542332855,"(0.0, 0.0, 0.0, 0.0, 0.0, 0.0, 0.0, 0.0, 0.0)",3.25,264.5,-217.25,"(0.0, 0.0, 0.0, 0.0, 0.0, 0.0, 0.0, 0.0, 0.0)",1.15283203125,0.13232421875,0.9189453125,"(0.0, 0.0, 0.0, 0.0, 0.0, 0.0, 0.0, 0.0, 0.0)"
2022/11/28/23:04:01.331068,5517,1669698241,330595493,RL_myo,0.6145641650493564,0.25103807834422515,-0.48138519910063304,-0.5723277560500363,"(0.0, 0.0, 0.0, 0.0, 0.0, 0.0, 0.0, 0.0, 0.0)",58.875,303.0,-200.75,"(0.0, 0.0, 0.0, 0.0, 0.0, 0.0, 0.0, 0.0, 0.0)",1.1015625,0.01708984375,0.93603515625,"(0.0, 0.0, 0.0, 0.0, 0.0, 0.0, 0.0, 0.0, 0.0)"
2022/11/28/23:04:01.349537,5518,1669698241,349261283,RL_myo,0.6197082857598433,0.3074431828397844,-0.4467295325003736,-0.5673385714702791,"(0.0, 0.0, 0.0, 0.0, 0.0, 0.0, 0.0, 0.0, 0.0)",104.5,331.3125,-184.25,"(0.0, 0.0, 0.0, 0.0, 0.0, 0.0, 0.0, 0.0, 0.0)",0.814453125,0.076171875,0.92626953125,"(0.0, 0.0, 0.0, 0.0, 0.0, 0.0, 0.0, 0.0, 0.0)"
2022/11/28/23:04:01.371616,5519,1669698241,371335506,RL_myo,0.6238308643264483,0.36455745549573193,-0.40874623798006304,-0.5575476905999516,"(0.0, 0.0, 0.0, 0.0, 0.0, 0.0, 0.0, 0.0, 0.0)",109.125,350.5625,-172.9375,"(0.0, 0.0, 0.0, 0.0, 0.0, 0.0, 0.0, 0.0, 0.0)",0.4609375,0.2099609375,0.85205078125,"(0.0, 0.0, 0.0, 0.0, 0.0, 0.0, 0.0, 0.0, 0.0)"
2022/11/28/23:04:01.391023,5520,1669698241,390635251,RL_myo,0.6281756721554556,0.4190686130022695,-0.36718857789421105,-0.5430924145782398,"(0.0, 0.0, 0.0, 0.0, 0.0, 0.0, 0.0, 0.0, 0.0)",95.375,364.9375,-152.8125,"(0.0, 0.0, 0.0, 0.0, 0.0, 0.0, 0.0, 0.0, 0.0)",0.1708984375,0.35791015625,0.6953125,"(0.0, 0.0, 0.0, 0.0, 0.0, 0.0, 0.0, 0.0, 0.0)"
2022/11/28/23:04:01.414388,5521,1669698241,413932800,RL_myo,0.6356927717294172,0.46698851622676624,-0.3222104793048097,-0.5234470677245782,"(0.0, 0.0, 0.0, 0.0, 0.0, 0.0, 0.0, 0.0, 0.0)",61.9375,375.125,-114.9375,"(0.0, 0.0, 0.0, 0.0, 0.0, 0.0, 0.0, 0.0, 0.0)",-0.060546875,0.51611328125,0.55224609375,"(0.0, 0.0, 0.0, 0.0, 0.0, 0.0, 0.0, 0.0, 0.0)"
2022/11/28/23:04:01.431604,5522,1669698241,431298494,RL_myo,0.6473367040602365,0.5067121739683277,-0.2760610892385866,-0.4979841757898802,"(0.0, 0.0, 0.0, 0.0, 0.0, 0.0, 0.0, 0.0, 0.0)",25.75,378.1875,-69.3125,"(0.0, 0.0, 0.0, 0.0, 0.0, 0.0, 0.0, 0.0, 0.0)",-0.11474609375,0.58740234375,0.44482421875,"(0.0, 0.0, 0.0, 0.0, 0.0, 0.0, 0.0, 0.0, 0.0)"
2022/11/28/23:04:01.450832,5523,1669698241,450443029,RL_myo,0.6630459844598425,0.5389575663058463,-0.2303540039907434,-0.46565201283661406,"(0.0, 0.0, 0.0, 0.0, 0.0, 0.0, 0.0, 0.0, 0.0)",-1.8125,381.5625,-19.25,"(0.0, 0.0, 0.0, 0.0, 0.0, 0.0, 0.0, 0.0, 0.0)",-0.107421875,0.51171875,0.38720703125,"(0.0, 0.0, 0.0, 0.0, 0.0, 0.0, 0.0, 0.0, 0.0)"
2022/11/28/23:04:01.469430,5524,1669698241,469166517,RL_myo,0.6811679422381649,0.5637946489654058,-0.1875653303313513,-0.4277441701796648,"(0.0, 0.0, 0.0, 0.0, 0.0, 0.0, 0.0, 0.0, 0.0)",-22.875,371.0,27.75,"(0.0, 0.0, 0.0, 0.0, 0.0, 0.0, 0.0, 0.0, 0.0)",-0.1396484375,0.462890625,0.33642578125,"(0.0, 0.0, 0.0, 0.0, 0.0, 0.0, 0.0, 0.0, 0.0)"
2022/11/28/23:04:01.491534,5525,1669698241,491151809,RL_myo,0.6987711854224846,0.5838963277211292,-0.1505825047551773,-0.3848490849134142,"(0.0, 0.0, 0.0, 0.0, 0.0, 0.0, 0.0, 0.0, 0.0)",-20.5,352.1875,70.5,"(0.0, 0.0, 0.0, 0.0, 0.0, 0.0, 0.0, 0.0, 0.0)",-0.17236328125,0.42138671875,0.27001953125,"(0.0, 0.0, 0.0, 0.0, 0.0, 0.0, 0.0, 0.0, 0.0)"
2022/11/28/23:04:01.511982,5526,1669698241,511130571,RL_myo,0.7148404931726619,0.6002780268402604,-0.12194768659144284,-0.33733977166711937,"(0.0, 0.0, 0.0, 0.0, 0.0, 0.0, 0.0, 0.0, 0.0)",-9.4375,324.0625,116.875,"(0.0, 0.0, 0.0, 0.0, 0.0, 0.0, 0.0, 0.0, 0.0)",-0.16552734375,0.45703125,0.17236328125,"(0.0, 0.0, 0.0, 0.0, 0.0, 0.0, 0.0, 0.0, 0.0)"
2022/11/28/23:04:01.529309,5527,1669698241,529012680,RL_myo,0.7258005674652462,0.6167260056907617,-0.10345908349622339,-0.2866335434208053,"(0.0, 0.0, 0.0, 0.0, 0.0, 0.0, 0.0, 0.0, 0.0)",29.625,290.375,153.25,"(0.0, 0.0, 0.0, 0.0, 0.0, 0.0, 0.0, 0.0, 0.0)",-0.0859375,0.52783203125,0.13916015625,"(0.0, 0.0, 0.0, 0.0, 0.0, 0.0, 0.0, 0.0, 0.0)"
2022/11/28/23:04:01.551919,5528,1669698241,551553487,RL_myo,0.7314414623228231,0.6317715768110433,-0.0910639737805117,-0.23992793628095943,"(0.0, 0.0, 0.0, 0.0, 0.0, 0.0, 0.0, 0.0, 0.0)",50.5625,245.375,147.9375,"(0.0, 0.0, 0.0, 0.0, 0.0, 0.0, 0.0, 0.0, 0.0)",0.06201171875,0.66455078125,0.16552734375,"(0.0, 0.0, 0.0, 0.0, 0.0, 0.0, 0.0, 0.0, 0.0)"
2022/11/28/23:04:01.571469,5529,1669698241,571005582,RL_myo,0.7348253914957263,0.6441242924208324,-0.08301042714795148,-0.19556280042796803,"(0.0, 0.0, 0.0, 0.0, 0.0, 0.0, 0.0, 0.0, 0.0)",50.9375,214.25,149.6875,"(0.0, 0.0, 0.0, 0.0, 0.0, 0.0, 0.0, 0.0, 0.0)",0.2509765625,0.66455078125,0.087890625,"(0.0, 0.0, 0.0, 0.0, 0.0, 0.0, 0.0, 0.0, 0.0)"
2022/11/28/23:04:01.595398,5530,1669698241,594901561,RL_myo,0.735181879845582,0.6559568005562865,-0.08264311044507415,-0.14966093560658922,"(0.0, 0.0, 0.0, 0.0, 0.0, 0.0, 0.0, 0.0, 0.0)",67.75,185.5,178.125,"(0.0, 0.0, 0.0, 0.0, 0.0, 0.0, 0.0, 0.0, 0.0)",0.45361328125,0.765625,-0.0322265625,"(0.0, 0.0, 0.0, 0.0, 0.0, 0.0, 0.0, 0.0, 0.0)"
2022/11/28/23:04:01.612901,5531,1669698241,612488031,RL_myo,0.7329985036985028,0.6659794049341631,-0.08148496980910162,-0.11200368509340934,"(0.0, 0.0, 0.0, 0.0, 0.0, 0.0, 0.0, 0.0, 0.0)",65.1875,155.0625,137.375,"(0.0, 0.0, 0.0, 0.0, 0.0, 0.0, 0.0, 0.0, 0.0)",0.57666015625,0.95751953125,0.009765625,"(0.0, 0.0, 0.0, 0.0, 0.0, 0.0, 0.0, 0.0, 0.0)"
2022/11/28/23:04:01.631555,5532,1669698241,630864620,RL_myo,0.7326312009762982,0.670678300118934,-0.07782260945136885,-0.08594057577060966,"(0.0, 0.0, 0.0, 0.0, 0.0, 0.0, 0.0, 0.0, 0.0)",28.875,118.5,83.9375,"(0.0, 0.0, 0.0, 0.0, 0.0, 0.0, 0.0, 0.0, 0.0)",0.5283203125,0.9619140625,-0.0322265625,"(0.0, 0.0, 0.0, 0.0, 0.0, 0.0, 0.0, 0.0, 0.0)"
2022/11/28/23:04:01.650873,5533,1669698241,650410175,RL_myo,0.7316658859580475,0.674289900907529,-0.08124195330025537,-0.05829155928004799,"(0.0, 0.0, 0.0, 0.0, 0.0, 0.0, 0.0, 0.0, 0.0)",18.0,96.1875,95.6875,"(0.0, 0.0, 0.0, 0.0, 0.0, 0.0, 0.0, 0.0, 0.0)",0.48876953125,0.95361328125,-0.13134765625,"(0.0, 0.0, 0.0, 0.0, 0.0, 0.0, 0.0, 0.0, 0.0)"
2022/11/28/23:04:01.671670,5534,1669698241,671355724,RL_myo,0.7313266136451456,0.6759064362799484,-0.08514443548948239,-0.0325929236927481,"(0.0, 0.0, 0.0, 0.0, 0.0, 0.0, 0.0, 0.0, 0.0)",2.375,86.25,96.6875,"(0.0, 0.0, 0.0, 0.0, 0.0, 0.0, 0.0, 0.0, 0.0)",0.44580078125,1.0537109375,-0.1865234375,"(0.0, 0.0, 0.0, 0.0, 0.0, 0.0, 0.0, 0.0, 0.0)"
2022/11/28/23:04:01.694139,5535,1669698241,693802833,RL_myo,0.7325762130529361,0.6750785632699111,-0.08612439898497691,-0.013550401541222447,"(0.0, 0.0, 0.0, 0.0, 0.0, 0.0, 0.0, 0.0, 0.0)",-11.1875,72.625,67.125,"(0.0, 0.0, 0.0, 0.0, 0.0, 0.0, 0.0, 0.0, 0.0)",0.3623046875,1.03125,-0.09326171875,"(0.0, 0.0, 0.0, 0.0, 0.0, 0.0, 0.0, 0.0, 0.0)"
2022/11/28/23:04:01.709790,5536,1669698241,709493160,RL_myo,0.7337837453184689,0.6738456619793626,-0.08655010404771162,-0.0015869553633571945,"(0.0, 0.0, 0.0, 0.0, 0.0, 0.0, 0.0, 0.0, 0.0)",-9.9375,46.6875,39.0,"(0.0, 0.0, 0.0, 0.0, 0.0, 0.0, 0.0, 0.0, 0.0)",0.3017578125,0.85302734375,-0.021484375,"(0.0, 0.0, 0.0, 0.0, 0.0, 0.0, 0.0, 0.0, 0.0)"
2022/11/28/23:04:01.730844,5537,1669698241,730505704,RL_myo,0.7324198259170359,0.675169009524521,-0.08746313421159271,0.007629373186635791,"(0.0, 0.0, 0.0, 0.0, 0.0, 0.0, 0.0, 0.0, 0.0)",10.4375,32.0625,36.125,"(0.0, 0.0, 0.0, 0.0, 0.0, 0.0, 0.0, 0.0, 0.0)",0.1982421875,0.88623046875,-0.0048828125,"(0.0, 0.0, 0.0, 0.0, 0.0, 0.0, 0.0, 0.0, 0.0)"
2022/11/28/23:04:01.750974,5538,1669698241,750563859,RL_myo,0.72970734735271,0.6778862233123544,-0.08826071302986355,0.014404929650793773,"(0.0, 0.0, 0.0, 0.0, 0.0, 0.0, 0.0, 0.0, 0.0)",22.125,21.4375,34.4375,"(0.0, 0.0, 0.0, 0.0, 0.0, 0.0, 0.0, 0.0, 0.0)",0.10302734375,1.05126953125,0.0244140625,"(0.0, 0.0, 0.0, 0.0, 0.0, 0.0, 0.0, 0.0, 0.0)"
2022/11/28/23:04:01.769288,5539,1669698241,768875360,RL_myo,0.7278983021058303,0.6796769470816286,-0.08887378850030096,0.017457351312559117,"(0.0, 0.0, 0.0, 0.0, 0.0, 0.0, 0.0, 0.0, 0.0)",14.6875,8.125,21.4375,"(0.0, 0.0, 0.0, 0.0, 0.0, 0.0, 0.0, 0.0, 0.0)",0.0693359375,1.1259765625,0.05078125,"(0.0, 0.0, 0.0, 0.0, 0.0, 0.0, 0.0, 0.0, 0.0)"
2022/11/28/23:04:01.791024,5540,1669698241,790563344,RL_myo,0.7287921246207391,0.678557960586998,-0.08990877718311127,0.018372397781477593,"(0.0, 0.0, 0.0, 0.0, 0.0, 0.0, 0.0, 0.0, 0.0)",-5.5,-0.875,10.75,"(0.0, 0.0, 0.0, 0.0, 0.0, 0.0, 0.0, 0.0, 0.0)",0.13525390625,1.0751953125,0.1005859375,"(0.0, 0.0, 0.0, 0.0, 0.0, 0.0, 0.0, 0.0, 0.0)"
2022/11/28/23:04:01.812449,5541,1669698241,811557531,RL_myo,0.7306326327262354,0.6762471961548839,-0.0919242059219474,0.02038690888308794,"(0.0, 0.0, 0.0, 0.0, 0.0, 0.0, 0.0, 0.0, 0.0)",-15.5,0.625,14.0625,"(0.0, 0.0, 0.0, 0.0, 0.0, 0.0, 0.0, 0.0, 0.0)",0.2109375,0.99951171875,0.07958984375,"(0.0, 0.0, 0.0, 0.0, 0.0, 0.0, 0.0, 0.0, 0.0)"
2022/11/28/23:04:01.836071,5542,1669698241,835666656,RL_myo,0.7322788183136596,0.6741701715657556,-0.09338889655913138,0.023255666398058206,"(0.0, 0.0, 0.0, 0.0, 0.0, 0.0, 0.0, 0.0, 0.0)",-13.6875,6.25,19.0625,"(0.0, 0.0, 0.0, 0.0, 0.0, 0.0, 0.0, 0.0, 0.0)",0.16064453125,0.98193359375,0.07177734375,"(0.0, 0.0, 0.0, 0.0, 0.0, 0.0, 0.0, 0.0, 0.0)"
2022/11/28/23:04:01.850975,5543,1669698241,850332498,RL_myo,0.7334538935731078,0.6726582812230066,-0.09430644686837979,0.026125022174541455,"(0.0, 0.0, 0.0, 0.0, 0.0, 0.0, 0.0, 0.0, 0.0)",-7.625,7.5,18.8125,"(0.0, 0.0, 0.0, 0.0, 0.0, 0.0, 0.0, 0.0, 0.0)",0.12451171875,0.92724609375,0.10009765625,"(0.0, 0.0, 0.0, 0.0, 0.0, 0.0, 0.0, 0.0, 0.0)"
2022/11/28/23:04:01.873115,5544,1669698241,872710704,RL_myo,0.7327536141673697,0.6733032168163479,-0.09472999660039633,0.027588890762486558,"(0.0, 0.0, 0.0, 0.0, 0.0, 0.0, 0.0, 0.0, 0.0)",8.375,2.4375,11.4375,"(0.0, 0.0, 0.0, 0.0, 0.0, 0.0, 0.0, 0.0, 0.0)",0.11376953125,0.95654296875,0.1064453125,"(0.0, 0.0, 0.0, 0.0, 0.0, 0.0, 0.0, 0.0, 0.0)"
2022/11/28/23:04:01.895221,5545,1669698241,893843650,RL_myo,0.7301968769696557,0.6762393379542603,-0.09369323799619005,0.027100845387823046,"(0.0, 0.0, 0.0, 0.0, 0.0, 0.0, 0.0, 0.0, 0.0)",25.3125,-0.3125,-2.5625,"(0.0, 0.0, 0.0, 0.0, 0.0, 0.0, 0.0, 0.0, 0.0)",0.1181640625,1.04638671875,0.119140625,"(0.0, 0.0, 0.0, 0.0, 0.0, 0.0, 0.0, 0.0, 0.0)"
2022/11/28/23:04:01.911097,5546,1669698241,910135030,RL_myo,0.7286661342521336,0.6780660148606928,-0.09259394585864354,0.026429254157411108,"(0.0, 0.0, 0.0, 0.0, 0.0, 0.0, 0.0, 0.0, 0.0)",13.8125,0.5625,-3.6875,"(0.0, 0.0, 0.0, 0.0, 0.0, 0.0, 0.0, 0.0, 0.0)",0.12451171875,1.0751953125,0.07763671875,"(0.0, 0.0, 0.0, 0.0, 0.0, 0.0, 0.0, 0.0, 0.0)"
2022/11/28/23:04:01.932177,5547,1669698241,931253671,RL_myo,0.7301296111745644,0.6764777194990551,-0.09283791494704167,0.02587986583665067,"(0.0, 0.0, 0.0, 0.0, 0.0, 0.0, 0.0, 0.0, 0.0)",-12.125,-2.4375,3.0625,"(0.0, 0.0, 0.0, 0.0, 0.0, 0.0, 0.0, 0.0, 0.0)",0.130859375,1.05029296875,0.07666015625,"(0.0, 0.0, 0.0, 0.0, 0.0, 0.0, 0.0, 0.0, 0.0)"
2022/11/28/23:04:01.955151,5548,1669698241,953911542,RL_myo,0.7326161320965688,0.6737773458480399,-0.09320210228371746,0.024719614554620545,"(0.0, 0.0, 0.0, 0.0, 0.0, 0.0, 0.0, 0.0, 0.0)",-19.4375,-4.6875,-0.375,"(0.0, 0.0, 0.0, 0.0, 0.0, 0.0, 0.0, 0.0, 0.0)",0.134765625,0.95751953125,0.1044921875,"(0.0, 0.0, 0.0, 0.0, 0.0, 0.0, 0.0, 0.0, 0.0)"
2022/11/28/23:04:01.971634,5549,1669698241,970254421,RL_myo,0.7336322759091964,0.6726539379748185,-0.09345128666419666,0.02423263279274074,"(0.0, 0.0, 0.0, 0.0, 0.0, 0.0, 0.0, 0.0, 0.0)",-5.8125,-2.875,-1.625,"(0.0, 0.0, 0.0, 0.0, 0.0, 0.0, 0.0, 0.0, 0.0)",0.1689453125,0.90185546875,0.1171875,"(0.0, 0.0, 0.0, 0.0, 0.0, 0.0, 0.0, 0.0, 0.0)"
2022/11/28/23:04:01.992165,5550,1669698241,991533517,RL_myo,0.733187471068997,0.6731871976706599,-0.0930217870387239,0.024537243037773625,"(0.0, 0.0, 0.0, 0.0, 0.0, 0.0, 0.0, 0.0, 0.0)",7.6875,1.875,0.375,"(0.0, 0.0, 0.0, 0.0, 0.0, 0.0, 0.0, 0.0, 0.0)",0.150390625,0.94482421875,0.1220703125,"(0.0, 0.0, 0.0, 0.0, 0.0, 0.0, 0.0, 0.0, 0.0)"
2022/11/28/23:04:02.014815,5551,1669698242,13912200,RL_myo,0.7327486293882356,0.6737869320963542,-0.09216580011463854,0.024414781487321468,"(0.0, 0.0, 0.0, 0.0, 0.0, 0.0, 0.0, 0.0, 0.0)",7.1875,2.125,-0.3125,"(0.0, 0.0, 0.0, 0.0, 0.0, 0.0, 0.0, 0.0, 0.0)",0.1123046875,0.9775390625,0.1171875,"(0.0, 0.0, 0.0, 0.0, 0.0, 0.0, 0.0, 0.0, 0.0)"
2022/11/28/23:04:02.031822,5552,1669698242,30433177,RL_myo,0.7331122004695996,0.6735403490285597,-0.091310952618643,0.023499142218033123,"(0.0, 0.0, 0.0, 0.0, 0.0, 0.0, 0.0, 0.0, 0.0)",0.125,-0.75,-2.9375,"(0.0, 0.0, 0.0, 0.0, 0.0, 0.0, 0.0, 0.0, 0.0)",0.10107421875,0.97900390625,0.11865234375,"(0.0, 0.0, 0.0, 0.0, 0.0, 0.0, 0.0, 0.0, 0.0)"
2022/11/28/23:04:02.051873,5553,1669698242,51237344,RL_myo,0.7342933362174776,0.6723392434277237,-0.09094738744505748,0.02240113502841349,"(0.0, 0.0, 0.0, 0.0, 0.0, 0.0, 0.0, 0.0, 0.0)",-7.1875,-2.6875,-2.6875,"(0.0, 0.0, 0.0, 0.0, 0.0, 0.0, 0.0, 0.0, 0.0)",0.11962890625,0.96484375,0.12060546875,"(0.0, 0.0, 0.0, 0.0, 0.0, 0.0, 0.0, 0.0, 0.0)"
2022/11/28/23:04:02.068364,5554,1669698242,67974328,RL_myo,0.7357060413494103,0.6708213220302015,-0.09088743844431028,0.021791011097796353,"(0.0, 0.0, 0.0, 0.0, 0.0, 0.0, 0.0, 0.0, 0.0)",-10.375,-1.5625,-0.625,"(0.0, 0.0, 0.0, 0.0, 0.0, 0.0, 0.0, 0.0, 0.0)",0.13330078125,0.9521484375,0.10693359375,"(0.0, 0.0, 0.0, 0.0, 0.0, 0.0, 0.0, 0.0, 0.0)"
2022/11/28/23:04:02.090782,5555,1669698242,90368747,RL_myo,0.7366062105774105,0.669830672429276,-0.0909465738946256,0.021607441046105676,"(0.0, 0.0, 0.0, 0.0, 0.0, 0.0, 0.0, 0.0, 0.0)",-5.1875,-0.875,1.25,"(0.0, 0.0, 0.0, 0.0, 0.0, 0.0, 0.0, 0.0, 0.0)",0.130859375,0.92724609375,0.11767578125,"(0.0, 0.0, 0.0, 0.0, 0.0, 0.0, 0.0, 0.0, 0.0)"
2022/11/28/23:04:02.111697,5556,1669698242,111204147,RL_myo,0.7367359377081474,0.6697155516598006,-0.0908864798050896,0.020997279417696992,"(0.0, 0.0, 0.0, 0.0, 0.0, 0.0, 0.0, 0.0, 0.0)",0.1875,-2.8125,1.0,"(0.0, 0.0, 0.0, 0.0, 0.0, 0.0, 0.0, 0.0, 0.0)",0.10498046875,0.947265625,0.1083984375,"(0.0, 0.0, 0.0, 0.0, 0.0, 0.0, 0.0, 0.0, 0.0)"
2022/11/28/23:04:02.128623,5557,1669698242,128242731,RL_myo,0.7367772000874451,0.6696975759555504,-0.09094507730347885,0.019837013505792367,"(0.0, 0.0, 0.0, 0.0, 0.0, 0.0, 0.0, 0.0, 0.0)",0.4375,-5.0,-1.75,"(0.0, 0.0, 0.0, 0.0, 0.0, 0.0, 0.0, 0.0, 0.0)",0.11572265625,0.98681640625,0.10107421875,"(0.0, 0.0, 0.0, 0.0, 0.0, 0.0, 0.0, 0.0, 0.0)"
2022/11/28/23:04:02.151621,5558,1669698242,151193141,RL_myo,0.7367394744924576,0.669718766705157,-0.09131418838779756,0.018799979962193614,"(0.0, 0.0, 0.0, 0.0, 0.0, 0.0, 0.0, 0.0, 0.0)",0.3125,-6.0,-0.8125,"(0.0, 0.0, 0.0, 0.0, 0.0, 0.0, 0.0, 0.0, 0.0)",0.13427734375,1.01220703125,0.09912109375,"(0.0, 0.0, 0.0, 0.0, 0.0, 0.0, 0.0, 0.0, 0.0)"
2022/11/28/23:04:02.174048,5559,1669698242,173598051,RL_myo,0.736768224521324,0.6696894175667274,-0.09149329538211123,0.01782257655208571,"(0.0, 0.0, 0.0, 0.0, 0.0, 0.0, 0.0, 0.0, 0.0)",-1.4375,-4.625,-0.1875,"(0.0, 0.0, 0.0, 0.0, 0.0, 0.0, 0.0, 0.0, 0.0)",0.1259765625,1.060546875,0.08544921875,"(0.0, 0.0, 0.0, 0.0, 0.0, 0.0, 0.0, 0.0, 0.0)"
2022/11/28/23:04:02.188061,5560,1669698242,187811851,RL_myo,0.7373284363907916,0.6693330822401838,-0.08984664390457328,0.016357948754365245,"(0.0, 0.0, 0.0, 0.0, 0.0, 0.0, 0.0, 0.0, 0.0)",-4.625,1.1875,-6.25,"(0.0, 0.0, 0.0, 0.0, 0.0, 0.0, 0.0, 0.0, 0.0)",0.0859375,1.1337890625,0.095703125,"(0.0, 0.0, 0.0, 0.0, 0.0, 0.0, 0.0, 0.0, 0.0)"
2022/11/28/23:04:02.210633,5561,1669698242,210308551,RL_myo,0.7386961373976882,0.6683790038427273,-0.08606524159070736,0.013794854325886428,"(0.0, 0.0, 0.0, 0.0, 0.0, 0.0, 0.0, 0.0, 0.0)",-10.125,5.8125,-14.5,"(0.0, 0.0, 0.0, 0.0, 0.0, 0.0, 0.0, 0.0, 0.0)",0.0244140625,1.16455078125,0.1103515625,"(0.0, 0.0, 0.0, 0.0, 0.0, 0.0, 0.0, 0.0, 0.0)"
2022/11/28/23:04:02.233618,5562,1669698242,233086109,RL_myo,0.7410121226689055,0.6664836381731284,-0.0812427623782795,0.010010377933912726,"(0.0, 0.0, 0.0, 0.0, 0.0, 0.0, 0.0, 0.0, 0.0)",-18.4375,6.1875,-22.0625,"(0.0, 0.0, 0.0, 0.0, 0.0, 0.0, 0.0, 0.0, 0.0)",-0.00927734375,1.15966796875,0.11328125,"(0.0, 0.0, 0.0, 0.0, 0.0, 0.0, 0.0, 0.0, 0.0)"
2022/11/28/23:04:02.254305,5563,1669698242,253835678,RL_myo,0.742783688152145,0.6653862260289697,-0.07422343370802928,0.0049441596466697135,"(0.0, 0.0, 0.0, 0.0, 0.0, 0.0, 0.0, 0.0, 0.0)",-13.1875,10.3125,-37.5625,"(0.0, 0.0, 0.0, 0.0, 0.0, 0.0, 0.0, 0.0, 0.0)",-0.01171875,1.1611328125,0.1259765625,"(0.0, 0.0, 0.0, 0.0, 0.0, 0.0, 0.0, 0.0, 0.0)"
2022/11/28/23:04:02.270872,5564,1669698242,270542144,RL_myo,0.7442366249432892,0.6648871939233371,-0.06347954481596169,-0.002685673049906071,"(0.0, 0.0, 0.0, 0.0, 0.0, 0.0, 0.0, 0.0, 0.0)",-7.375,15.5,-61.9375,"(0.0, 0.0, 0.0, 0.0, 0.0, 0.0, 0.0, 0.0, 0.0)",-0.0595703125,1.1552734375,0.16943359375,"(0.0, 0.0, 0.0, 0.0, 0.0, 0.0, 0.0, 0.0, 0.0)"
2022/11/28/23:04:02.293468,5565,1669698242,292878866,RL_myo,0.7449088854984428,0.665132098105255,-0.050112274253869354,-0.014099799455108185,"(0.0, 0.0, 0.0, 0.0, 0.0, 0.0, 0.0, 0.0, 0.0)",1.625,12.1875,-91.0,"(0.0, 0.0, 0.0, 0.0, 0.0, 0.0, 0.0, 0.0, 0.0)",-0.06005859375,1.10888671875,0.23388671875,"(0.0, 0.0, 0.0, 0.0, 0.0, 0.0, 0.0, 0.0, 0.0)"
2022/11/28/23:04:02.315057,5566,1669698242,313794612,RL_myo,0.7433057073400626,0.6674370101628827,-0.03491302878949876,-0.02838209508237224,"(0.0, 0.0, 0.0, 0.0, 0.0, 0.0, 0.0, 0.0, 0.0)",12.625,10.1875,-119.0,"(0.0, 0.0, 0.0, 0.0, 0.0, 0.0, 0.0, 0.0, 0.0)",-0.02783203125,1.171875,0.2314453125,"(0.0, 0.0, 0.0, 0.0, 0.0, 0.0, 0.0, 0.0, 0.0)"
2022/11/28/23:04:02.330937,5567,1669698242,330529689,RL_myo,0.7413719050032481,0.6694076800733264,-0.016602433571618926,-0.04455800186500668,"(0.0, 0.0, 0.0, 0.0, 0.0, 0.0, 0.0, 0.0, 0.0)",10.1875,16.125,-139.9375,"(0.0, 0.0, 0.0, 0.0, 0.0, 0.0, 0.0, 0.0, 0.0)",-0.02880859375,1.21875,0.171875,"(0.0, 0.0, 0.0, 0.0, 0.0, 0.0, 0.0, 0.0, 0.0)"
2022/11/28/23:04:02.353125,5568,1669698242,352739334,RL_myo,0.7407046956438781,0.669045254961067,0.004089593292800975,-0.060977667156838423,"(0.0, 0.0, 0.0, 0.0, 0.0, 0.0, 0.0, 0.0, 0.0)",-5.625,24.5625,-149.5,"(0.0, 0.0, 0.0, 0.0, 0.0, 0.0, 0.0, 0.0, 0.0)",-0.09814453125,1.17138671875,0.130859375,"(0.0, 0.0, 0.0, 0.0, 0.0, 0.0, 0.0, 0.0, 0.0)"
2022/11/28/23:04:02.374125,5569,1669698242,373671531,RL_myo,0.7398245281248068,0.6678623864979487,0.02490292941794581,-0.07745543488081676,"(0.0, 0.0, 0.0, 0.0, 0.0, 0.0, 0.0, 0.0, 0.0)",-8.3125,24.8125,-150.25,"(0.0, 0.0, 0.0, 0.0, 0.0, 0.0, 0.0, 0.0, 0.0)",-0.1318359375,1.0498046875,0.126953125,"(0.0, 0.0, 0.0, 0.0, 0.0, 0.0, 0.0, 0.0, 0.0)"
2022/11/28/23:04:02.390484,5570,1669698242,390212774,RL_myo,0.7375265722115059,0.6673324517080521,0.04510735221917594,-0.09320558435545555,"(0.0, 0.0, 0.0, 0.0, 0.0, 0.0, 0.0, 0.0, 0.0)",0.0625,25.6875,-147.1875,"(0.0, 0.0, 0.0, 0.0, 0.0, 0.0, 0.0, 0.0, 0.0)",-0.08203125,0.93359375,0.12646484375,"(0.0, 0.0, 0.0, 0.0, 0.0, 0.0, 0.0, 0.0, 0.0)"
2022/11/28/23:04:02.413781,5571,1669698242,413359165,RL_myo,0.7337326367468596,0.6678120604481649,0.06451671217381504,-0.10724301162667267,"(0.0, 0.0, 0.0, 0.0, 0.0, 0.0, 0.0, 0.0, 0.0)",10.0625,30.0625,-137.4375,"(0.0, 0.0, 0.0, 0.0, 0.0, 0.0, 0.0, 0.0, 0.0)",-0.07958984375,0.849609375,0.10791015625,"(0.0, 0.0, 0.0, 0.0, 0.0, 0.0, 0.0, 0.0, 0.0)"
2022/11/28/23:04:02.434499,5572,1669698242,433948755,RL_myo,0.7291495190594522,0.6689058747172725,0.08209493580570594,-0.11902239763652535,"(0.0, 0.0, 0.0, 0.0, 0.0, 0.0, 0.0, 0.0, 0.0)",16.375,31.25,-121.25,"(0.0, 0.0, 0.0, 0.0, 0.0, 0.0, 0.0, 0.0, 0.0)",-0.125,0.81689453125,0.099609375,"(0.0, 0.0, 0.0, 0.0, 0.0, 0.0, 0.0, 0.0, 0.0)"
2022/11/28/23:04:02.451549,5573,1669698242,450774192,RL_myo,0.7244722934671058,0.670147553288007,0.09723518101719603,-0.12879236154820065,"(0.0, 0.0, 0.0, 0.0, 0.0, 0.0, 0.0, 0.0, 0.0)",17.4375,29.1875,-102.8125,"(0.0, 0.0, 0.0, 0.0, 0.0, 0.0, 0.0, 0.0, 0.0)",-0.16015625,0.765625,0.0810546875,"(0.0, 0.0, 0.0, 0.0, 0.0, 0.0, 0.0, 0.0, 0.0)"
2022/11/28/23:04:02.473394,5574,1669698242,472990512,RL_myo,0.7209291407006962,0.6709994110340153,0.10828281226001484,-0.1352619571410332,"(0.0, 0.0, 0.0, 0.0, 0.0, 0.0, 0.0, 0.0, 0.0)",14.8125,24.875,-78.5625,"(0.0, 0.0, 0.0, 0.0, 0.0, 0.0, 0.0, 0.0, 0.0)",-0.15673828125,0.7236328125,0.09326171875,"(0.0, 0.0, 0.0, 0.0, 0.0, 0.0, 0.0, 0.0, 0.0)"
2022/11/28/23:04:02.494601,5575,1669698242,493976116,RL_myo,0.7183021524958676,0.6715465909041074,0.11646163383430622,-0.1396562988537173,"(0.0, 0.0, 0.0, 0.0, 0.0, 0.0, 0.0, 0.0, 0.0)",10.0625,19.9375,-58.375,"(0.0, 0.0, 0.0, 0.0, 0.0, 0.0, 0.0, 0.0, 0.0)",-0.1552734375,0.69775390625,0.076171875,"(0.0, 0.0, 0.0, 0.0, 0.0, 0.0, 0.0, 0.0, 0.0)"
2022/11/28/23:04:02.511217,5576,1669698242,510904312,RL_myo,0.7165824115709719,0.6717807514267562,0.12238055666097093,-0.14227884168415125,"(0.0, 0.0, 0.0, 0.0, 0.0, 0.0, 0.0, 0.0, 0.0)",5.1875,16.0625,-39.3125,"(0.0, 0.0, 0.0, 0.0, 0.0, 0.0, 0.0, 0.0, 0.0)",-0.1982421875,0.67236328125,0.05322265625,"(0.0, 0.0, 0.0, 0.0, 0.0, 0.0, 0.0, 0.0, 0.0)"
2022/11/28/23:04:02.534160,5577,1669698242,533622503,RL_myo,0.7158630318721249,0.6716099027702072,0.1260451194420138,-0.14350221588773582,"(0.0, 0.0, 0.0, 0.0, 0.0, 0.0, 0.0, 0.0, 0.0)",-0.4375,10.75,-20.75,"(0.0, 0.0, 0.0, 0.0, 0.0, 0.0, 0.0, 0.0, 0.0)",-0.263671875,0.68798828125,0.04833984375,"(0.0, 0.0, 0.0, 0.0, 0.0, 0.0, 0.0, 0.0, 0.0)"
2022/11/28/23:04:02.555278,5578,1669698242,554349899,RL_myo,0.7162047172412255,0.6708544441109859,0.12756671714966433,-0.14398559127084123,"(0.0, 0.0, 0.0, 0.0, 0.0, 0.0, 0.0, 0.0, 0.0)",-4.6875,3.6875,-7.75,"(0.0, 0.0, 0.0, 0.0, 0.0, 0.0, 0.0, 0.0, 0.0)",-0.30859375,0.74072265625,0.0625,"(0.0, 0.0, 0.0, 0.0, 0.0, 0.0, 0.0, 0.0, 0.0)"
2022/11/28/23:04:02.578414,5579,1669698242,578122377,RL_myo,0.717013111999679,0.6699528319833554,0.12769144720382467,-0.14404962495268941,"(0.0, 0.0, 0.0, 0.0, 0.0, 0.0, 0.0, 0.0, 0.0)",-4.9375,-0.3125,0.1875,"(0.0, 0.0, 0.0, 0.0, 0.0, 0.0, 0.0, 0.0, 0.0)",-0.32080078125,0.7578125,0.08837890625,"(0.0, 0.0, 0.0, 0.0, 0.0, 0.0, 0.0, 0.0, 0.0)"
2022/11/28/23:04:02.593139,5580,1669698242,592823505,RL_myo,0.7180986903831799,0.6690860895860958,0.12640734277803362,-0.14380284866491896,"(0.0, 0.0, 0.0, 0.0, 0.0, 0.0, 0.0, 0.0, 0.0)",-3.875,-4.5625,6.375,"(0.0, 0.0, 0.0, 0.0, 0.0, 0.0, 0.0, 0.0, 0.0)",-0.3251953125,0.79638671875,0.1064453125,"(0.0, 0.0, 0.0, 0.0, 0.0, 0.0, 0.0, 0.0, 0.0)"
2022/11/28/23:04:02.614265,5581,1669698242,613811016,RL_myo,0.7192470134803883,0.6684041110508938,0.12451323043957843,-0.1428850355191437,"(0.0, 0.0, 0.0, 0.0, 0.0, 0.0, 0.0, 0.0, 0.0)",-4.5625,-4.875,10.5,"(0.0, 0.0, 0.0, 0.0, 0.0, 0.0, 0.0, 0.0, 0.0)",-0.33447265625,0.87109375,0.099609375,"(0.0, 0.0, 0.0, 0.0, 0.0, 0.0, 0.0, 0.0, 0.0)"
2022/11/28/23:04:02.630843,5582,1669698242,630438089,RL_myo,0.7204889709885888,0.6675082503160968,0.12317407179388107,-0.1419736823550879,"(0.0, 0.0, 0.0, 0.0, 0.0, 0.0, 0.0, 0.0, 0.0)",-7.0,-3.25,9.5,"(0.0, 0.0, 0.0, 0.0, 0.0, 0.0, 0.0, 0.0, 0.0)",-0.3623046875,0.90625,0.09375,"(0.0, 0.0, 0.0, 0.0, 0.0, 0.0, 0.0, 0.0, 0.0)"
2022/11/28/23:04:02.654120,5583,1669698242,653341770,RL_myo,0.7221914439792285,0.6659762377668494,0.12219635487207704,-0.14136201692494027,"(0.0, 0.0, 0.0, 0.0, 0.0, 0.0, 0.0, 0.0, 0.0)",-9.9375,-3.4375,7.75,"(0.0, 0.0, 0.0, 0.0, 0.0, 0.0, 0.0, 0.0, 0.0)",-0.37646484375,0.91015625,0.119140625,"(0.0, 0.0, 0.0, 0.0, 0.0, 0.0, 0.0, 0.0, 0.0)"
2022/11/28/23:04:02.675167,5584,1669698242,673629999,RL_myo,0.7238448010994168,0.6643941866908806,0.12158688285606192,-0.14087476186334885,"(0.0, 0.0, 0.0, 0.0, 0.0, 0.0, 0.0, 0.0, 0.0)",-10.875,-2.6875,6.0625,"(0.0, 0.0, 0.0, 0.0, 0.0, 0.0, 0.0, 0.0, 0.0)",-0.38232421875,0.91650390625,0.11181640625,"(0.0, 0.0, 0.0, 0.0, 0.0, 0.0, 0.0, 0.0, 0.0)"
2022/11/28/23:04:02.690781,5585,1669698242,690459966,RL_myo,0.7252042025727616,0.6630054749890865,0.12134550582565862,-0.14063382566514962,"(0.0, 0.0, 0.0, 0.0, 0.0, 0.0, 0.0, 0.0, 0.0)",-10.9375,-2.25,3.6875,"(0.0, 0.0, 0.0, 0.0, 0.0, 0.0, 0.0, 0.0, 0.0)",-0.39306640625,0.93115234375,0.0927734375,"(0.0, 0.0, 0.0, 0.0, 0.0, 0.0, 0.0, 0.0, 0.0)"
2022/11/28/23:04:02.713697,5586,1669698242,713163375,RL_myo,0.7257743977066026,0.6624194380884499,0.12121671464513604,-0.1405650019273657,"(0.0, 0.0, 0.0, 0.0, 0.0, 0.0, 0.0, 0.0, 0.0)",-5.0,-1.4375,3.75,"(0.0, 0.0, 0.0, 0.0, 0.0, 0.0, 0.0, 0.0, 0.0)",-0.4111328125,0.9404296875,0.08740234375,"(0.0, 0.0, 0.0, 0.0, 0.0, 0.0, 0.0, 0.0, 0.0)"
2022/11/28/23:04:02.734279,5587,1669698242,733818292,RL_myo,0.7253604259304388,0.6628588207341438,0.1212189335154705,-0.14062861169166366,"(0.0, 0.0, 0.0, 0.0, 0.0, 0.0, 0.0, 0.0, 0.0)",4.375,0.125,3.1875,"(0.0, 0.0, 0.0, 0.0, 0.0, 0.0, 0.0, 0.0, 0.0)",-0.41357421875,0.92431640625,0.10498046875,"(0.0, 0.0, 0.0, 0.0, 0.0, 0.0, 0.0, 0.0, 0.0)"
2022/11/28/23:04:02.751659,5588,1669698242,751343250,RL_myo,0.7248402803514205,0.6634959029406265,0.12097965773949602,-0.14051219582054483,"(0.0, 0.0, 0.0, 0.0, 0.0, 0.0, 0.0, 0.0, 0.0)",5.6875,0.625,2.75,"(0.0, 0.0, 0.0, 0.0, 0.0, 0.0, 0.0, 0.0, 0.0)",-0.390625,0.9443359375,0.10595703125,"(0.0, 0.0, 0.0, 0.0, 0.0, 0.0, 0.0, 0.0, 0.0)"
2022/11/28/23:04:02.773054,5589,1669698242,772616147,RL_myo,0.7245764221135051,0.6638440878532964,0.1212205184329392,-0.1400200751687626,"(0.0, 0.0, 0.0, 0.0, 0.0, 0.0, 0.0, 0.0, 0.0)",1.0,2.875,3.0,"(0.0, 0.0, 0.0, 0.0, 0.0, 0.0, 0.0, 0.0, 0.0)",-0.3984375,0.94970703125,0.08056640625,"(0.0, 0.0, 0.0, 0.0, 0.0, 0.0, 0.0, 0.0, 0.0)"
2022/11/28/23:04:02.793886,5590,1669698242,793486833,RL_myo,0.7248248347826652,0.6635428024355666,0.12201472376678296,-0.13947155768239072,"(0.0, 0.0, 0.0, 0.0, 0.0, 0.0, 0.0, 0.0, 0.0)",-3.375,4.4375,3.5625,"(0.0, 0.0, 0.0, 0.0, 0.0, 0.0, 0.0, 0.0, 0.0)",-0.4267578125,0.919921875,0.08203125,"(0.0, 0.0, 0.0, 0.0, 0.0, 0.0, 0.0, 0.0, 0.0)"
2022/11/28/23:04:02.812119,5591,1669698242,811478853,RL_myo,0.7250850840890611,0.6632523380513291,0.12232262888412143,-0.1392304972478448,"(0.0, 0.0, 0.0, 0.0, 0.0, 0.0, 0.0, 0.0, 0.0)",-1.375,1.875,3.6875,"(0.0, 0.0, 0.0, 0.0, 0.0, 0.0, 0.0, 0.0, 0.0)",-0.39892578125,0.8701171875,0.1083984375,"(0.0, 0.0, 0.0, 0.0, 0.0, 0.0, 0.0, 0.0, 0.0)"
2022/11/28/23:04:02.833681,5592,1669698242,833164691,RL_myo,0.7247757604190701,0.6635537553912507,0.12238297116727603,-0.1393517821321153,"(0.0, 0.0, 0.0, 0.0, 0.0, 0.0, 0.0, 0.0, 0.0)",4.3125,0.625,2.3125,"(0.0, 0.0, 0.0, 0.0, 0.0, 0.0, 0.0, 0.0, 0.0)",-0.384765625,0.86572265625,0.111328125,"(0.0, 0.0, 0.0, 0.0, 0.0, 0.0, 0.0, 0.0, 0.0)"
2022/11/28/23:04:02.854930,5593,1669698242,853790283,RL_myo,0.7240782231238307,0.6642622694307215,0.12225648494622211,-0.13971297755461928,"(0.0, 0.0, 0.0, 0.0, 0.0, 0.0, 0.0, 0.0, 0.0)",6.9375,-0.4375,0.625,"(0.0, 0.0, 0.0, 0.0, 0.0, 0.0, 0.0, 0.0, 0.0)",-0.375,0.89111328125,0.10009765625,"(0.0, 0.0, 0.0, 0.0, 0.0, 0.0, 0.0, 0.0, 0.0)"
2022/11/28/23:04:02.871605,5594,1669698242,871295928,RL_myo,0.7236677761156689,0.6647049664220339,0.122137248651101,-0.13983829918024607,"(0.0, 0.0, 0.0, 0.0, 0.0, 0.0, 0.0, 0.0, 0.0)",4.125,-0.4375,1.375,"(0.0, 0.0, 0.0, 0.0, 0.0, 0.0, 0.0, 0.0, 0.0)",-0.37890625,0.90771484375,0.09619140625,"(0.0, 0.0, 0.0, 0.0, 0.0, 0.0, 0.0, 0.0, 0.0)"
2022/11/28/23:04:02.893568,5595,1669698242,893109560,RL_myo,0.7237937731968476,0.6646475287856699,0.12177167967007177,-0.13977801826790193,"(0.0, 0.0, 0.0, 0.0, 0.0, 0.0, 0.0, 0.0, 0.0)",0.0625,-1.3125,2.8125,"(0.0, 0.0, 0.0, 0.0, 0.0, 0.0, 0.0, 0.0, 0.0)",-0.36279296875,0.8935546875,0.0908203125,"(0.0, 0.0, 0.0, 0.0, 0.0, 0.0, 0.0, 0.0, 0.0)"
2022/11/28/23:04:02.914090,5596,1669698242,913666963,RL_myo,0.7244230317420016,0.664115485789769,0.1213475722196747,-0.13941541999483753,"(0.0, 0.0, 0.0, 0.0, 0.0, 0.0, 0.0, 0.0, 0.0)",-2.75,-0.6875,3.875,"(0.0, 0.0, 0.0, 0.0, 0.0, 0.0, 0.0, 0.0, 0.0)",-0.35693359375,0.8857421875,0.10888671875,"(0.0, 0.0, 0.0, 0.0, 0.0, 0.0, 0.0, 0.0, 0.0)"
2022/11/28/23:04:02.932331,5597,1669698242,931546926,RL_myo,0.7249938598658044,0.663590944979039,0.12109680232141405,-0.13916366395807664,"(0.0, 0.0, 0.0, 0.0, 0.0, 0.0, 0.0, 0.0, 0.0)",-3.5,-0.5,3.4375,"(0.0, 0.0, 0.0, 0.0, 0.0, 0.0, 0.0, 0.0, 0.0)",-0.36865234375,0.8955078125,0.10302734375,"(0.0, 0.0, 0.0, 0.0, 0.0, 0.0, 0.0, 0.0, 0.0)"
2022/11/28/23:04:02.953458,5598,1669698242,953069210,RL_myo,0.7253621432589658,0.6632266112968631,0.12109714677093471,-0.13898094919224713,"(0.0, 0.0, 0.0, 0.0, 0.0, 0.0, 0.0, 0.0, 0.0)",-1.9375,0.375,1.875,"(0.0, 0.0, 0.0, 0.0, 0.0, 0.0, 0.0, 0.0, 0.0)",-0.36328125,0.89404296875,0.10302734375,"(0.0, 0.0, 0.0, 0.0, 0.0, 0.0, 0.0, 0.0, 0.0)"
2022/11/28/23:04:02.974666,5599,1669698242,974061250,RL_myo,0.7257250091998935,0.6627962888899616,0.12127969665939346,-0.13898030663987868,"(0.0, 0.0, 0.0, 0.0, 0.0, 0.0, 0.0, 0.0, 0.0)",-1.75,0.5625,1.125,"(0.0, 0.0, 0.0, 0.0, 0.0, 0.0, 0.0, 0.0, 0.0)",-0.3642578125,0.86767578125,0.109375,"(0.0, 0.0, 0.0, 0.0, 0.0, 0.0, 0.0, 0.0, 0.0)"
2022/11/28/23:04:02.990702,5600,1669698242,990370750,RL_myo,0.7260579787832672,0.6623943829975633,0.12140641612441516,-0.13904666462112505,"(0.0, 0.0, 0.0, 0.0, 0.0, 0.0, 0.0, 0.0, 0.0)",-1.4375,-0.125,1.5,"(0.0, 0.0, 0.0, 0.0, 0.0, 0.0, 0.0, 0.0, 0.0)",-0.3759765625,0.87890625,0.1103515625,"(0.0, 0.0, 0.0, 0.0, 0.0, 0.0, 0.0, 0.0, 0.0)"
2022/11/28/23:04:03.013572,5601,1669698243,13090848,RL_myo,0.7262784687759617,0.6621286519271898,0.12140246023996872,-0.1391642078165554,"(0.0, 0.0, 0.0, 0.0, 0.0, 0.0, 0.0, 0.0, 0.0)",-1.625,-0.8125,1.5625,"(0.0, 0.0, 0.0, 0.0, 0.0, 0.0, 0.0, 0.0, 0.0)",-0.3818359375,0.90283203125,0.09228515625,"(0.0, 0.0, 0.0, 0.0, 0.0, 0.0, 0.0, 0.0, 0.0)"
2022/11/28/23:04:03.034622,5602,1669698243,34082651,RL_myo,0.7263375059959816,0.6620047554649089,0.12158523629781473,-0.13928589820864118,"(0.0, 0.0, 0.0, 0.0, 0.0, 0.0, 0.0, 0.0, 0.0)",-0.9375,-0.3125,1.8125,"(0.0, 0.0, 0.0, 0.0, 0.0, 0.0, 0.0, 0.0, 0.0)",-0.40185546875,0.904296875,0.0908203125,"(0.0, 0.0, 0.0, 0.0, 0.0, 0.0, 0.0, 0.0, 0.0)"
2022/11/28/23:04:03.051363,5603,1669698243,50947666,RL_myo,0.7264500247149629,0.6617519045504644,0.122010888876257,-0.13952821009060704,"(0.0, 0.0, 0.0, 0.0, 0.0, 0.0, 0.0, 0.0, 0.0)",-2.4375,-0.0625,2.75,"(0.0, 0.0, 0.0, 0.0, 0.0, 0.0, 0.0, 0.0, 0.0)",-0.435546875,0.90185546875,0.08154296875,"(0.0, 0.0, 0.0, 0.0, 0.0, 0.0, 0.0, 0.0, 0.0)"
2022/11/28/23:04:03.073444,5604,1669698243,72939872,RL_myo,0.7265977107436865,0.6614090048402711,0.12256453319668369,-0.1398993576129477,"(0.0, 0.0, 0.0, 0.0, 0.0, 0.0, 0.0, 0.0, 0.0)",-2.8125,-0.9375,4.5625,"(0.0, 0.0, 0.0, 0.0, 0.0, 0.0, 0.0, 0.0, 0.0)",-0.4794921875,0.896484375,0.080078125,"(0.0, 0.0, 0.0, 0.0, 0.0, 0.0, 0.0, 0.0, 0.0)"
2022/11/28/23:04:03.094194,5605,1669698243,93760490,RL_myo,0.7263672936909729,0.6614215121374271,0.12281100797531407,-0.1408175921466449,"(0.0, 0.0, 0.0, 0.0, 0.0, 0.0, 0.0, 0.0, 0.0)",-0.6875,-4.25,6.75,"(0.0, 0.0, 0.0, 0.0, 0.0, 0.0, 0.0, 0.0, 0.0)",-0.529296875,0.89013671875,0.0625,"(0.0, 0.0, 0.0, 0.0, 0.0, 0.0, 0.0, 0.0, 0.0)"
2022/11/28/23:04:03.110768,5606,1669698243,110447168,RL_myo,0.7255987906933147,0.661815922567935,0.12347630834224223,-0.14233650571137366,"(0.0, 0.0, 0.0, 0.0, 0.0, 0.0, 0.0, 0.0, 0.0)",1.5625,-5.1875,7.6875,"(0.0, 0.0, 0.0, 0.0, 0.0, 0.0, 0.0, 0.0, 0.0)",-0.60546875,0.8671875,0.03369140625,"(0.0, 0.0, 0.0, 0.0, 0.0, 0.0, 0.0, 0.0, 0.0)"
2022/11/28/23:04:03.133870,5607,1669698243,133273363,RL_myo,0.7247544692527742,0.6619472982184889,0.1248818969253138,-0.14477998998379488,"(0.0, 0.0, 0.0, 0.0, 0.0, 0.0, 0.0, 0.0, 0.0)",1.0,-6.5,8.9375,"(0.0, 0.0, 0.0, 0.0, 0.0, 0.0, 0.0, 0.0, 0.0)",-0.7236328125,0.8388671875,0.03515625,"(0.0, 0.0, 0.0, 0.0, 0.0, 0.0, 0.0, 0.0, 0.0)"
2022/11/28/23:04:03.157725,5608,1669698243,156917095,RL_myo,0.7236133498096399,0.6623915708253236,0.12512925914042697,-0.14820187375266178,"(0.0, 0.0, 0.0, 0.0, 0.0, 0.0, 0.0, 0.0, 0.0)",6.375,-14.875,15.8125,"(0.0, 0.0, 0.0, 0.0, 0.0, 0.0, 0.0, 0.0, 0.0)",-0.8154296875,0.810546875,0.04638671875,"(0.0, 0.0, 0.0, 0.0, 0.0, 0.0, 0.0, 0.0, 0.0)"
2022/11/28/23:04:03.169994,5609,1669698243,169693708,RL_myo,0.7223196632424081,0.6635403970853658,0.12231946975982644,-0.1516785840085672,"(0.0, 0.0, 0.0, 0.0, 0.0, 0.0, 0.0, 0.0, 0.0)",13.8125,-26.375,27.125,"(0.0, 0.0, 0.0, 0.0, 0.0, 0.0, 0.0, 0.0, 0.0)",-0.80859375,0.80126953125,0.06640625,"(0.0, 0.0, 0.0, 0.0, 0.0, 0.0, 0.0, 0.0, 0.0)"
2022/11/28/23:04:03.193292,5610,1669698243,192863464,RL_myo,0.7210909110616661,0.6653031090716236,0.11633648861380867,-0.15448460266608066,"(0.0, 0.0, 0.0, 0.0, 0.0, 0.0, 0.0, 0.0, 0.0)",20.1875,-35.3125,39.1875,"(0.0, 0.0, 0.0, 0.0, 0.0, 0.0, 0.0, 0.0, 0.0)",-0.75732421875,0.80810546875,0.0986328125,"(0.0, 0.0, 0.0, 0.0, 0.0, 0.0, 0.0, 0.0, 0.0)"
2022/11/28/23:04:03.216488,5611,1669698243,216014146,RL_myo,0.7211847262011676,0.6663710246244728,0.10706373336917885,-0.15613969780978307,"(0.0, 0.0, 0.0, 0.0, 0.0, 0.0, 0.0, 0.0, 0.0)",18.0,-44.3125,53.125,"(0.0, 0.0, 0.0, 0.0, 0.0, 0.0, 0.0, 0.0, 0.0)",-0.69677734375,0.8515625,0.154296875,"(0.0, 0.0, 0.0, 0.0, 0.0, 0.0, 0.0, 0.0, 0.0)"
2022/11/28/23:04:03.237296,5612,1669698243,236193180,RL_myo,0.7237212820555551,0.6655525731242112,0.09448600359466976,-0.15601177337724542,"(0.0, 0.0, 0.0, 0.0, 0.0, 0.0, 0.0, 0.0, 0.0)",5.75,-52.5625,68.5625,"(0.0, 0.0, 0.0, 0.0, 0.0, 0.0, 0.0, 0.0, 0.0)",-0.59375,0.84912109375,0.2060546875,"(0.0, 0.0, 0.0, 0.0, 0.0, 0.0, 0.0, 0.0, 0.0)"
2022/11/28/23:04:03.255096,5613,1669698243,253716707,RL_myo,0.7279249418934143,0.6633480017187344,0.07916473667916807,-0.154362081003559,"(0.0, 0.0, 0.0, 0.0, 0.0, 0.0, 0.0, 0.0, 0.0)",-5.25,-60.5,82.75,"(0.0, 0.0, 0.0, 0.0, 0.0, 0.0, 0.0, 0.0, 0.0)",-0.49755859375,0.8173828125,0.20654296875,"(0.0, 0.0, 0.0, 0.0, 0.0, 0.0, 0.0, 0.0, 0.0)"
2022/11/28/23:04:03.276489,5614,1669698243,275395870,RL_myo,0.7327988349518735,0.6606542220155821,0.06024258288334992,-0.15136940785279412,"(0.0, 0.0, 0.0, 0.0, 0.0, 0.0, 0.0, 0.0, 0.0)",-4.5625,-70.25,97.4375,"(0.0, 0.0, 0.0, 0.0, 0.0, 0.0, 0.0, 0.0, 0.0)",-0.38623046875,0.779296875,0.24609375,"(0.0, 0.0, 0.0, 0.0, 0.0, 0.0, 0.0, 0.0, 0.0)"
2022/11/28/23:04:03.296737,5615,1669698243,296217441,RL_myo,0.7348483789197103,0.6611743201643244,0.036745470895395434,-0.14661564965239174,"(0.0, 0.0, 0.0, 0.0, 0.0, 0.0, 0.0, 0.0, 0.0)",16.0625,-80.4375,112.0625,"(0.0, 0.0, 0.0, 0.0, 0.0, 0.0, 0.0, 0.0, 0.0)",-0.2509765625,0.7099609375,0.26318359375,"(0.0, 0.0, 0.0, 0.0, 0.0, 0.0, 0.0, 0.0, 0.0)"
2022/11/28/23:04:03.313483,5616,1669698243,313081502,RL_myo,0.7342559262328169,0.6636989976604863,0.009765664854301803,-0.14239560065678816,"(0.0, 0.0, 0.0, 0.0, 0.0, 0.0, 0.0, 0.0, 0.0)",37.1875,-94.4375,119.125,"(0.0, 0.0, 0.0, 0.0, 0.0, 0.0, 0.0, 0.0, 0.0)",-0.10400390625,0.771484375,0.25439453125,"(0.0, 0.0, 0.0, 0.0, 0.0, 0.0, 0.0, 0.0, 0.0)"
2022/11/28/23:04:03.336778,5617,1669698243,336431503,RL_myo,0.7327559823825884,0.6659808849459744,-0.019348908489402794,-0.13843320017023827,"(0.0, 0.0, 0.0, 0.0, 0.0, 0.0, 0.0, 0.0, 0.0)",40.875,-104.9375,122.375,"(0.0, 0.0, 0.0, 0.0, 0.0, 0.0, 0.0, 0.0, 0.0)",0.08544921875,0.91015625,0.23193359375,"(0.0, 0.0, 0.0, 0.0, 0.0, 0.0, 0.0, 0.0, 0.0)"
2022/11/28/23:04:03.357030,5618,1669698243,356450080,RL_myo,0.7322027556994568,0.6660994225531988,-0.050660910906181154,-0.13275600147101688,"(0.0, 0.0, 0.0, 0.0, 0.0, 0.0, 0.0, 0.0, 0.0)",29.4375,-108.8125,136.1875,"(0.0, 0.0, 0.0, 0.0, 0.0, 0.0, 0.0, 0.0, 0.0)",0.29150390625,0.96923828125,0.17041015625,"(0.0, 0.0, 0.0, 0.0, 0.0, 0.0, 0.0, 0.0, 0.0)"
2022/11/28/23:04:03.373159,5619,1669698243,372713804,RL_myo,0.7336658250299828,0.6629238374085393,-0.08130140423793153,-0.1251260350508706,"(0.0, 0.0, 0.0, 0.0, 0.0, 0.0, 0.0, 0.0, 0.0)",7.125,-100.6875,143.0,"(0.0, 0.0, 0.0, 0.0, 0.0, 0.0, 0.0, 0.0, 0.0)",0.4248046875,0.90283203125,0.12255859375,"(0.0, 0.0, 0.0, 0.0, 0.0, 0.0, 0.0, 0.0, 0.0)"
2022/11/28/23:04:03.395999,5620,1669698243,395445346,RL_myo,0.7349907332270407,0.6586351936765483,-0.10913165844626711,-0.11865321253889445,"(0.0, 0.0, 0.0, 0.0, 0.0, 0.0, 0.0, 0.0, 0.0)",-0.5625,-93.75,127.625,"(0.0, 0.0, 0.0, 0.0, 0.0, 0.0, 0.0, 0.0, 0.0)",0.48193359375,0.84814453125,0.052734375,"(0.0, 0.0, 0.0, 0.0, 0.0, 0.0, 0.0, 0.0, 0.0)"
2022/11/28/23:04:03.417063,5621,1669698243,416490554,RL_myo,0.7342180514793767,0.6558461188083717,-0.13379382898352263,-0.11352943517762414,"(0.0, 0.0, 0.0, 0.0, 0.0, 0.0, 0.0, 0.0, 0.0)",9.3125,-86.0625,108.0,"(0.0, 0.0, 0.0, 0.0, 0.0, 0.0, 0.0, 0.0, 0.0)",0.49365234375,0.83203125,-0.021484375,"(0.0, 0.0, 0.0, 0.0, 0.0, 0.0, 0.0, 0.0, 0.0)"
2022/11/28/23:04:03.433880,5622,1669698243,433413028,RL_myo,0.7299496956675405,0.6563382454647598,-0.15888109857200503,-0.1055951980520817,"(0.0, 0.0, 0.0, 0.0, 0.0, 0.0, 0.0, 0.0, 0.0)",30.0,-75.5,98.25,"(0.0, 0.0, 0.0, 0.0, 0.0, 0.0, 0.0, 0.0, 0.0)",0.44921875,0.798828125,-0.0830078125,"(0.0, 0.0, 0.0, 0.0, 0.0, 0.0, 0.0, 0.0, 0.0)"
2022/11/28/23:04:03.456204,5623,1669698243,455717563,RL_myo,0.7250549478828751,0.6573652486487553,-0.1799361887666231,-0.09894048914202715,"(0.0, 0.0, 0.0, 0.0, 0.0, 0.0, 0.0, 0.0, 0.0)",29.5,-63.9375,81.6875,"(0.0, 0.0, 0.0, 0.0, 0.0, 0.0, 0.0, 0.0, 0.0)",0.42431640625,0.85205078125,-0.1142578125,"(0.0, 0.0, 0.0, 0.0, 0.0, 0.0, 0.0, 0.0, 0.0)"
2022/11/28/23:04:03.476991,5624,1669698243,476387262,RL_myo,0.718400819591444,0.6605381197636879,-0.19720926491928253,-0.09326392968018066,"(0.0, 0.0, 0.0, 0.0, 0.0, 0.0, 0.0, 0.0, 0.0)",39.1875,-51.9375,61.0,"(0.0, 0.0, 0.0, 0.0, 0.0, 0.0, 0.0, 0.0, 0.0)",0.44580078125,0.94921875,-0.16796875,"(0.0, 0.0, 0.0, 0.0, 0.0, 0.0, 0.0, 0.0, 0.0)"
2022/11/28/23:04:03.493420,5625,1669698243,493004322,RL_myo,0.711453699486646,0.6644547848843195,-0.21143407815903756,-0.08734473609860935,"(0.0, 0.0, 0.0, 0.0, 0.0, 0.0, 0.0, 0.0, 0.0)",40.4375,-38.375,50.0625,"(0.0, 0.0, 0.0, 0.0, 0.0, 0.0, 0.0, 0.0, 0.0)",0.470703125,0.96240234375,-0.2041015625,"(0.0, 0.0, 0.0, 0.0, 0.0, 0.0, 0.0, 0.0, 0.0)"
2022/11/28/23:04:03.516662,5626,1669698243,516298055,RL_myo,0.7066976373343394,0.6667788037865195,-0.22193406541264968,-0.08203503407992331,"(0.0, 0.0, 0.0, 0.0, 0.0, 0.0, 0.0, 0.0, 0.0)",25.5625,-24.125,38.8125,"(0.0, 0.0, 0.0, 0.0, 0.0, 0.0, 0.0, 0.0, 0.0)",0.45263671875,0.97607421875,-0.1875,"(0.0, 0.0, 0.0, 0.0, 0.0, 0.0, 0.0, 0.0, 0.0)"
2022/11/28/23:04:03.536567,5627,1669698243,536185741,RL_myo,0.7039301278703095,0.6680408609677047,-0.22827526907439152,-0.07806525912998577,"(0.0, 0.0, 0.0, 0.0, 0.0, 0.0, 0.0, 0.0, 0.0)",11.0,-10.6875,25.75,"(0.0, 0.0, 0.0, 0.0, 0.0, 0.0, 0.0, 0.0, 0.0)",0.38134765625,0.9580078125,-0.181640625,"(0.0, 0.0, 0.0, 0.0, 0.0, 0.0, 0.0, 0.0, 0.0)"
2022/11/28/23:04:03.553216,5628,1669698243,552865028,RL_myo,0.7013178850913907,0.6695785204049222,-0.23310121872619854,-0.07403817185516597,"(0.0, 0.0, 0.0, 0.0, 0.0, 0.0, 0.0, 0.0, 0.0)",15.1875,-4.9375,21.4375,"(0.0, 0.0, 0.0, 0.0, 0.0, 0.0, 0.0, 0.0, 0.0)",0.36083984375,0.9130859375,-0.12646484375,"(0.0, 0.0, 0.0, 0.0, 0.0, 0.0, 0.0, 0.0, 0.0)"
2022/11/28/23:04:03.576053,5629,1669698243,575409412,RL_myo,0.6980298526497201,0.6722108051094234,-0.23652200760909978,-0.07031570393953109,"(0.0, 0.0, 0.0, 0.0, 0.0, 0.0, 0.0, 0.0, 0.0)",23.25,-1.4375,18.75,"(0.0, 0.0, 0.0, 0.0, 0.0, 0.0, 0.0, 0.0, 0.0)",0.30078125,0.9638671875,-0.10888671875,"(0.0, 0.0, 0.0, 0.0, 0.0, 0.0, 0.0, 0.0, 0.0)"
2022/11/28/23:04:03.596702,5630,1669698243,596251964,RL_myo,0.6956425906257111,0.6741574461227497,-0.23883912056843093,-0.06744626328344396,"(0.0, 0.0, 0.0, 0.0, 0.0, 0.0, 0.0, 0.0, 0.0)",17.1875,0.5625,14.8125,"(0.0, 0.0, 0.0, 0.0, 0.0, 0.0, 0.0, 0.0, 0.0)",0.2724609375,0.9912109375,-0.09326171875,"(0.0, 0.0, 0.0, 0.0, 0.0, 0.0, 0.0, 0.0, 0.0)"
2022/11/28/23:04:03.614487,5631,1669698243,613074064,RL_myo,0.6947062555778273,0.6747476414876894,-0.24060200838936877,-0.06488075467222197,"(0.0, 0.0, 0.0, 0.0, 0.0, 0.0, 0.0, 0.0, 0.0)",6.875,2.3125,14.3125,"(0.0, 0.0, 0.0, 0.0, 0.0, 0.0, 0.0, 0.0, 0.0)",0.271484375,0.97314453125,-0.072265625,"(0.0, 0.0, 0.0, 0.0, 0.0, 0.0, 0.0, 0.0, 0.0)"
2022/11/28/23:04:03.636032,5632,1669698243,635625123,RL_myo,0.6946012954052856,0.674520115599632,-0.24207282404019007,-0.0628681313064538,"(0.0, 0.0, 0.0, 0.0, 0.0, 0.0, 0.0, 0.0, 0.0)",0.8125,2.3125,13.375,"(0.0, 0.0, 0.0, 0.0, 0.0, 0.0, 0.0, 0.0, 0.0)",0.25244140625,0.9443359375,-0.05712890625,"(0.0, 0.0, 0.0, 0.0, 0.0, 0.0, 0.0, 0.0, 0.0)"
2022/11/28/23:04:03.658188,5633,1669698243,656274795,RL_myo,0.6936123048409941,0.6751794540787643,-0.24335025161924004,-0.06176836083237294,"(0.0, 0.0, 0.0, 0.0, 0.0, 0.0, 0.0, 0.0, 0.0)",8.5,-1.9375,9.25,"(0.0, 0.0, 0.0, 0.0, 0.0, 0.0, 0.0, 0.0, 0.0)",0.2373046875,0.95556640625,-0.029296875,"(0.0, 0.0, 0.0, 0.0, 0.0, 0.0, 0.0, 0.0, 0.0)"
2022/11/28/23:04:03.673141,5634,1669698243,672855615,RL_myo,0.6910996891138697,0.6775499115828904,-0.2440791006593981,-0.06109606895725369,"(0.0, 0.0, 0.0, 0.0, 0.0, 0.0, 0.0, 0.0, 0.0)",19.5,-2.8125,1.375,"(0.0, 0.0, 0.0, 0.0, 0.0, 0.0, 0.0, 0.0, 0.0)",0.28857421875,1.1064453125,-0.0546875,"(0.0, 0.0, 0.0, 0.0, 0.0, 0.0, 0.0, 0.0, 0.0)"
2022/11/28/23:04:03.696882,5635,1669698243,695678472,RL_myo,0.691145950458412,0.678022539759078,-0.24281361749744437,-0.06036768921693627,"(0.0, 0.0, 0.0, 0.0, 0.0, 0.0, 0.0, 0.0, 0.0)",2.1875,8.125,-0.25,"(0.0, 0.0, 0.0, 0.0, 0.0, 0.0, 0.0, 0.0, 0.0)",0.24951171875,1.09619140625,-0.04150390625,"(0.0, 0.0, 0.0, 0.0, 0.0, 0.0, 0.0, 0.0, 0.0)"
2022/11/28/23:04:03.716648,5636,1669698243,716257095,RL_myo,0.6944987717886894,0.6749663753242509,-0.24165236750847435,-0.06079458399556465,"(0.0, 0.0, 0.0, 0.0, 0.0, 0.0, 0.0, 0.0, 0.0)",-26.25,6.75,1.4375,"(0.0, 0.0, 0.0, 0.0, 0.0, 0.0, 0.0, 0.0, 0.0)",0.23291015625,1.0166015625,-0.03125,"(0.0, 0.0, 0.0, 0.0, 0.0, 0.0, 0.0, 0.0, 0.0)"
2022/11/28/23:04:03.733754,5637,1669698243,733314752,RL_myo,0.6965596273587157,0.6730602007434769,-0.24103697585344974,-0.0607933218409815,"(0.0, 0.0, 0.0, 0.0, 0.0, 0.0, 0.0, 0.0, 0.0)",-14.75,4.1875,2.0625,"(0.0, 0.0, 0.0, 0.0, 0.0, 0.0, 0.0, 0.0, 0.0)",0.2275390625,0.927734375,-0.0078125,"(0.0, 0.0, 0.0, 0.0, 0.0, 0.0, 0.0, 0.0, 0.0)"
2022/11/28/23:04:03.756113,5638,1669698243,755647659,RL_myo,0.6955739436774708,0.6742111075694404,-0.24078968127480013,-0.06030423449924018,"(0.0, 0.0, 0.0, 0.0, 0.0, 0.0, 0.0, 0.0, 0.0)",8.75,2.125,0.125,"(0.0, 0.0, 0.0, 0.0, 0.0, 0.0, 0.0, 0.0, 0.0)",0.22412109375,0.91259765625,-0.02587890625,"(0.0, 0.0, 0.0, 0.0, 0.0, 0.0, 0.0, 0.0, 0.0)"
2022/11/28/23:04:03.777880,5639,1669698243,776440143,RL_myo,0.6941756358046085,0.6757424130829879,-0.24054745280101664,-0.06024367823258143,"(0.0, 0.0, 0.0, 0.0, 0.0, 0.0, 0.0, 0.0, 0.0)",11.75,-0.5,-2.25,"(0.0, 0.0, 0.0, 0.0, 0.0, 0.0, 0.0, 0.0, 0.0)",0.25048828125,1.01611328125,-0.0244140625,"(0.0, 0.0, 0.0, 0.0, 0.0, 0.0, 0.0, 0.0, 0.0)"
2022/11/28/23:04:03.793403,5640,1669698243,793014049,RL_myo,0.6942270000206332,0.6757940341329745,-0.24023891964842733,-0.06030387515565198,"(0.0, 0.0, 0.0, 0.0, 0.0, 0.0, 0.0, 0.0, 0.0)",-0.25,1.3125,-2.0,"(0.0, 0.0, 0.0, 0.0, 0.0, 0.0, 0.0, 0.0, 0.0)",0.26318359375,0.9970703125,-0.0341796875,"(0.0, 0.0, 0.0, 0.0, 0.0, 0.0, 0.0, 0.0, 0.0)"
2022/11/28/23:04:03.816202,5641,1669698243,815729379,RL_myo,0.6958946811601193,0.6742261773611681,-0.23981845472134977,-0.06030558240384158,"(0.0, 0.0, 0.0, 0.0, 0.0, 0.0, 0.0, 0.0, 0.0)",-11.6875,3.0,0.25,"(0.0, 0.0, 0.0, 0.0, 0.0, 0.0, 0.0, 0.0, 0.0)",0.255859375,0.92138671875,-0.0048828125,"(0.0, 0.0, 0.0, 0.0, 0.0, 0.0, 0.0, 0.0, 0.0)"
2022/11/28/23:04:03.837175,5642,1669698243,836431980,RL_myo,0.6966720003818933,0.6735391207476951,-0.23950770365328097,-0.06024314564367694,"(0.0, 0.0, 0.0, 0.0, 0.0, 0.0, 0.0, 0.0, 0.0)",-4.125,1.6875,-1.0,"(0.0, 0.0, 0.0, 0.0, 0.0, 0.0, 0.0, 0.0, 0.0)",0.2509765625,0.90576171875,0.00244140625,"(0.0, 0.0, 0.0, 0.0, 0.0, 0.0, 0.0, 0.0, 0.0)"
2022/11/28/23:04:03.854393,5643,1669698243,853055715,RL_myo,0.6961805510050197,0.6740853941170821,-0.23938454506765627,-0.06030390885437134,"(0.0, 0.0, 0.0, 0.0, 0.0, 0.0, 0.0, 0.0, 0.0)",4.625,-0.125,-2.1875,"(0.0, 0.0, 0.0, 0.0, 0.0, 0.0, 0.0, 0.0, 0.0)",0.2529296875,0.93359375,-0.01123046875,"(0.0, 0.0, 0.0, 0.0, 0.0, 0.0, 0.0, 0.0, 0.0)"
2022/11/28/23:04:03.875603,5644,1669698243,875312089,RL_myo,0.6961907219349215,0.6740952422452458,-0.23932700514701274,-0.06030478987126972,"(0.0, 0.0, 0.0, 0.0, 0.0, 0.0, 0.0, 0.0, 0.0)",0.9375,0.3125,-0.875,"(0.0, 0.0, 0.0, 0.0, 0.0, 0.0, 0.0, 0.0, 0.0)",0.25,0.9638671875,-0.01318359375,"(0.0, 0.0, 0.0, 0.0, 0.0, 0.0, 0.0, 0.0, 0.0)"
2022/11/28/23:04:03.896567,5645,1669698243,896150112,RL_myo,0.6971872777441965,0.6731379179620907,-0.23915074016825094,-0.06018443843948326,"(0.0, 0.0, 0.0, 0.0, 0.0, 0.0, 0.0, 0.0, 0.0)",-6.25,1.75,0.4375,"(0.0, 0.0, 0.0, 0.0, 0.0, 0.0, 0.0, 0.0, 0.0)",0.26025390625,0.96142578125,-0.0029296875,"(0.0, 0.0, 0.0, 0.0, 0.0, 0.0, 0.0, 0.0, 0.0)"
2022/11/28/23:04:03.913340,5646,1669698243,912992477,RL_myo,0.6982507987824205,0.6720663938280798,-0.23907765549219764,-0.060120370349710156,"(0.0, 0.0, 0.0, 0.0, 0.0, 0.0, 0.0, 0.0, 0.0)",-6.9375,1.3125,-0.25,"(0.0, 0.0, 0.0, 0.0, 0.0, 0.0, 0.0, 0.0, 0.0)",0.27392578125,0.93212890625,0.00146484375,"(0.0, 0.0, 0.0, 0.0, 0.0, 0.0, 0.0, 0.0, 0.0)"
2022/11/28/23:04:03.935980,5647,1669698243,935606002,RL_myo,0.6985471915300601,0.6718137996654759,-0.23895257796768765,-0.059997543842206125,"(0.0, 0.0, 0.0, 0.0, 0.0, 0.0, 0.0, 0.0, 0.0)",-1.25,1.125,-0.9375,"(0.0, 0.0, 0.0, 0.0, 0.0, 0.0, 0.0, 0.0, 0.0)",0.265625,0.931640625,-0.0029296875,"(0.0, 0.0, 0.0, 0.0, 0.0, 0.0, 0.0, 0.0, 0.0)"
2022/11/28/23:04:03.964683,5648,1669698243,964044094,RL_myo,0.6988605929080454,0.671638599507435,-0.23852813948337478,-0.05999825002869944,"(0.0, 0.0, 0.0, 0.0, 0.0, 0.0, 0.0, 0.0, 0.0)",-1.4375,1.625,-1.625,"(0.0, 0.0, 0.0, 0.0, 0.0, 0.0, 0.0, 0.0, 0.0)",0.25634765625,0.95703125,-0.00830078125,"(0.0, 0.0, 0.0, 0.0, 0.0, 0.0, 0.0, 0.0, 0.0)"
2022/11/28/23:04:03.972977,5649,1669698243,972693681,RL_myo,0.6993750688075394,0.6711754456805467,-0.23835395738291512,-0.05987842053588725,"(0.0, 0.0, 0.0, 0.0, 0.0, 0.0, 0.0, 0.0, 0.0)",-2.6875,1.5,-0.375,"(0.0, 0.0, 0.0, 0.0, 0.0, 0.0, 0.0, 0.0, 0.0)",0.25927734375,0.93896484375,0.00048828125,"(0.0, 0.0, 0.0, 0.0, 0.0, 0.0, 0.0, 0.0, 0.0)"
2022/11/28/23:04:03.996109,5650,1669698243,995487689,RL_myo,0.6999082372554049,0.6706106045805471,-0.23834844915691603,-0.05999911024871919,"(0.0, 0.0, 0.0, 0.0, 0.0, 0.0, 0.0, 0.0, 0.0)",-3.1875,-0.375,-0.625,"(0.0, 0.0, 0.0, 0.0, 0.0, 0.0, 0.0, 0.0, 0.0)",0.25390625,0.92578125,0.0068359375,"(0.0, 0.0, 0.0, 0.0, 0.0, 0.0, 0.0, 0.0, 0.0)"
2022/11/28/23:04:04.016986,5651,1669698244,16327619,RL_myo,0.7004804220571793,0.6699610589490763,-0.23847830332671657,-0.060062106596746635,"(0.0, 0.0, 0.0, 0.0, 0.0, 0.0, 0.0, 0.0, 0.0)",-3.6875,-0.6875,-0.1875,"(0.0, 0.0, 0.0, 0.0, 0.0, 0.0, 0.0, 0.0, 0.0)",0.267578125,0.93701171875,0.0078125,"(0.0, 0.0, 0.0, 0.0, 0.0, 0.0, 0.0, 0.0, 0.0)"
2022/11/28/23:04:04.033244,5652,1669698244,32829761,RL_myo,0.7012411468711545,0.6691362775827719,-0.2385281923555115,-0.06018137094742435,"(0.0, 0.0, 0.0, 0.0, 0.0, 0.0, 0.0, 0.0, 0.0)",-6.375,0.3125,0.0625,"(0.0, 0.0, 0.0, 0.0, 0.0, 0.0, 0.0, 0.0, 0.0)",0.2587890625,0.93017578125,-0.00732421875,"(0.0, 0.0, 0.0, 0.0, 0.0, 0.0, 0.0, 0.0, 0.0)"
2022/11/28/23:04:04.056085,5653,1669698244,55568456,RL_myo,0.7020917087701848,0.6682169892737533,-0.23858788921000196,-0.06024206872608645,"(0.0, 0.0, 0.0, 0.0, 0.0, 0.0, 0.0, 0.0, 0.0)",-6.5,-0.0625,0.75,"(0.0, 0.0, 0.0, 0.0, 0.0, 0.0, 0.0, 0.0, 0.0)",0.25439453125,0.9287109375,0.00244140625,"(0.0, 0.0, 0.0, 0.0, 0.0, 0.0, 0.0, 0.0, 0.0)"
2022/11/28/23:04:04.078318,5654,1669698244,77912807,RL_myo,0.7021752853461363,0.6680553284173733,-0.23877866101130782,-0.06030504015316261,"(0.0, 0.0, 0.0, 0.0, 0.0, 0.0, 0.0, 0.0, 0.0)",-2.4375,-0.4375,0.3125,"(0.0, 0.0, 0.0, 0.0, 0.0, 0.0, 0.0, 0.0, 0.0)",0.259765625,0.95166015625,-0.0283203125,"(0.0, 0.0, 0.0, 0.0, 0.0, 0.0, 0.0, 0.0, 0.0)"
2022/11/28/23:04:04.093149,5655,1669698244,92692852,RL_myo,0.7025279513872663,0.6676151809099843,-0.2389571615709077,-0.060364912590964936,"(0.0, 0.0, 0.0, 0.0, 0.0, 0.0, 0.0, 0.0, 0.0)",-8.1875,0.8125,-1.4375,"(0.0, 0.0, 0.0, 0.0, 0.0, 0.0, 0.0, 0.0, 0.0)",0.30322265625,1.017578125,-0.0810546875,"(0.0, 0.0, 0.0, 0.0, 0.0, 0.0, 0.0, 0.0, 0.0)"
2022/11/28/23:04:04.116585,5656,1669698244,115949153,RL_myo,0.7040611260568376,0.6660351111861474,-0.23877651713345022,-0.06067072035548301,"(0.0, 0.0, 0.0, 0.0, 0.0, 0.0, 0.0, 0.0, 0.0)",-23.0,3.625,-4.625,"(0.0, 0.0, 0.0, 0.0, 0.0, 0.0, 0.0, 0.0, 0.0)",0.359375,1.06640625,-0.1533203125,"(0.0, 0.0, 0.0, 0.0, 0.0, 0.0, 0.0, 0.0, 0.0)"
2022/11/28/23:04:04.138852,5657,1669698244,138149738,RL_myo,0.7064076977009444,0.663741234321271,-0.23787011128839367,-0.062076957449396036,"(0.0, 0.0, 0.0, 0.0, 0.0, 0.0, 0.0, 0.0, 0.0)",-34.9375,4.5,-12.9375,"(0.0, 0.0, 0.0, 0.0, 0.0, 0.0, 0.0, 0.0, 0.0)",0.3994140625,1.08056640625,-0.20458984375,"(0.0, 0.0, 0.0, 0.0, 0.0, 0.0, 0.0, 0.0, 0.0)"
2022/11/28/23:04:04.153429,5658,1669698244,152995347,RL_myo,0.709019840685672,0.661715228380972,-0.23487502986901393,-0.06524984587577336,"(0.0, 0.0, 0.0, 0.0, 0.0, 0.0, 0.0, 0.0, 0.0)",-46.375,8.8125,-30.625,"(0.0, 0.0, 0.0, 0.0, 0.0, 0.0, 0.0, 0.0, 0.0)",0.4267578125,1.115234375,-0.31787109375,"(0.0, 0.0, 0.0, 0.0, 0.0, 0.0, 0.0, 0.0, 0.0)"
2022/11/28/23:04:04.175690,5659,1669698244,175348043,RL_myo,0.7109583230174781,0.6609080289863714,-0.22962098310368756,-0.07080285497083402,"(0.0, 0.0, 0.0, 0.0, 0.0, 0.0, 0.0, 0.0, 0.0)",-53.25,10.6875,-49.0625,"(0.0, 0.0, 0.0, 0.0, 0.0, 0.0, 0.0, 0.0, 0.0)",0.40576171875,1.18701171875,-0.45361328125,"(0.0, 0.0, 0.0, 0.0, 0.0, 0.0, 0.0, 0.0, 0.0)"
2022/11/28/23:04:04.199079,5660,1669698244,198492765,RL_myo,0.7117621780469096,0.6614059652959705,-0.2226049792759694,-0.07989852423148998,"(0.0, 0.0, 0.0, 0.0, 0.0, 0.0, 0.0, 0.0, 0.0)",-54.1875,4.75,-74.9375,"(0.0, 0.0, 0.0, 0.0, 0.0, 0.0, 0.0, 0.0, 0.0)",0.43017578125,1.26123046875,-0.52294921875,"(0.0, 0.0, 0.0, 0.0, 0.0, 0.0, 0.0, 0.0, 0.0)"
2022/11/28/23:04:04.212616,5661,1669698244,212260007,RL_myo,0.7120598291467697,0.6625586701001359,-0.213630156181527,-0.09137266965821311,"(0.0, 0.0, 0.0, 0.0, 0.0, 0.0, 0.0, 0.0, 0.0)",-55.9375,2.25,-98.625,"(0.0, 0.0, 0.0, 0.0, 0.0, 0.0, 0.0, 0.0, 0.0)",0.46533203125,1.2353515625,-0.544921875,"(0.0, 0.0, 0.0, 0.0, 0.0, 0.0, 0.0, 0.0, 0.0)"
2022/11/28/23:04:04.236200,5662,1669698244,235775232,RL_myo,0.7160898121829642,0.6600575544618628,-0.2003244769506042,-0.10681530611321065,"(0.0, 0.0, 0.0, 0.0, 0.0, 0.0, 0.0, 0.0, 0.0)",-60.0,1.0,-114.0,"(0.0, 0.0, 0.0, 0.0, 0.0, 0.0, 0.0, 0.0, 0.0)",0.49560546875,1.13720703125,-0.4580078125,"(0.0, 0.0, 0.0, 0.0, 0.0, 0.0, 0.0, 0.0, 0.0)"
2022/11/28/23:04:04.259487,5663,1669698244,258020639,RL_myo,0.7187083133143856,0.6582818818764882,-0.1857349806722442,-0.12500336523718572,"(0.0, 0.0, 0.0, 0.0, 0.0, 0.0, 0.0, 0.0, 0.0)",-55.125,-5.75,-132.75,"(0.0, 0.0, 0.0, 0.0, 0.0, 0.0, 0.0, 0.0, 0.0)",0.49169921875,1.1240234375,-0.388671875,"(0.0, 0.0, 0.0, 0.0, 0.0, 0.0, 0.0, 0.0, 0.0)"
2022/11/28/23:04:04.272509,5664,1669698244,272209167,RL_myo,0.7202557819141833,0.6559821091721802,-0.170480881261552,-0.1478355511691654,"(0.0, 0.0, 0.0, 0.0, 0.0, 0.0, 0.0, 0.0, 0.0)",-56.8125,-22.125,-155.0625,"(0.0, 0.0, 0.0, 0.0, 0.0, 0.0, 0.0, 0.0, 0.0)",0.4716796875,1.1044921875,-0.28369140625,"(0.0, 0.0, 0.0, 0.0, 0.0, 0.0, 0.0, 0.0, 0.0)"
2022/11/28/23:04:04.297102,5665,1669698244,295723199,RL_myo,0.7183452557798036,0.6551108531128075,-0.15668215409862823,-0.1739556444024505,"(0.0, 0.0, 0.0, 0.0, 0.0, 0.0, 0.0, 0.0, 0.0)",-38.75,-43.0625,-167.5625,"(0.0, 0.0, 0.0, 0.0, 0.0, 0.0, 0.0, 0.0, 0.0)",0.39990234375,0.99853515625,-0.2099609375,"(0.0, 0.0, 0.0, 0.0, 0.0, 0.0, 0.0, 0.0, 0.0)"
2022/11/28/23:04:04.318700,5666,1669698244,318245649,RL_myo,0.7118126890763976,0.6563301188165412,-0.14600033890162434,-0.2030698693669332,"(0.0, 0.0, 0.0, 0.0, 0.0, 0.0, 0.0, 0.0, 0.0)",-11.6875,-69.75,-174.375,"(0.0, 0.0, 0.0, 0.0, 0.0, 0.0, 0.0, 0.0, 0.0)",0.3232421875,0.93017578125,-0.16650390625,"(0.0, 0.0, 0.0, 0.0, 0.0, 0.0, 0.0, 0.0, 0.0)"
2022/11/28/23:04:04.339169,5667,1669698244,338745594,RL_myo,0.7031530339039164,0.6566423905154802,-0.13867740390882796,-0.23487264535262764,"(0.0, 0.0, 0.0, 0.0, 0.0, 0.0, 0.0, 0.0, 0.0)",-4.0625,-96.25,-173.75,"(0.0, 0.0, 0.0, 0.0, 0.0, 0.0, 0.0, 0.0, 0.0)",0.25634765625,0.9052734375,-0.0810546875,"(0.0, 0.0, 0.0, 0.0, 0.0, 0.0, 0.0, 0.0, 0.0)"
2022/11/28/23:04:04.356248,5668,1669698244,355860233,RL_myo,0.6922915901400147,0.655790940263121,-0.135809274207506,-0.26874976824074104,"(0.0, 0.0, 0.0, 0.0, 0.0, 0.0, 0.0, 0.0, 0.0)",5.0,-125.3125,-166.75,"(0.0, 0.0, 0.0, 0.0, 0.0, 0.0, 0.0, 0.0, 0.0)",0.1689453125,0.81396484375,-0.009765625,"(0.0, 0.0, 0.0, 0.0, 0.0, 0.0, 0.0, 0.0, 0.0)"
2022/11/28/23:04:04.378175,5669,1669698244,377802133,RL_myo,0.6803683724119662,0.6514373049926362,-0.13836862835363123,-0.30591246815544765,"(0.0, 0.0, 0.0, 0.0, 0.0, 0.0, 0.0, 0.0, 0.0)",3.3125,-165.375,-157.4375,"(0.0, 0.0, 0.0, 0.0, 0.0, 0.0, 0.0, 0.0, 0.0)",0.11669921875,0.70458984375,0.103515625,"(0.0, 0.0, 0.0, 0.0, 0.0, 0.0, 0.0, 0.0, 0.0)"
2022/11/28/23:04:04.400035,5670,1669698244,399575233,RL_myo,0.6673177235407096,0.643024990167509,-0.14654988148003695,-0.34601885802179483,"(0.0, 0.0, 0.0, 0.0, 0.0, 0.0, 0.0, 0.0, 0.0)",-1.0,-206.0625,-146.5625,"(0.0, 0.0, 0.0, 0.0, 0.0, 0.0, 0.0, 0.0, 0.0)",0.115234375,0.64453125,0.1240234375,"(0.0, 0.0, 0.0, 0.0, 0.0, 0.0, 0.0, 0.0, 0.0)"
2022/11/28/23:04:04.416342,5671,1669698244,415641307,RL_myo,0.653401302790931,0.631183827385429,-0.1601001043643729,-0.3860591536807696,"(0.0, 0.0, 0.0, 0.0, 0.0, 0.0, 0.0, 0.0, 0.0)",0.375,-233.8125,-125.5,"(0.0, 0.0, 0.0, 0.0, 0.0, 0.0, 0.0, 0.0, 0.0)",0.0927734375,0.59716796875,0.1552734375,"(0.0, 0.0, 0.0, 0.0, 0.0, 0.0, 0.0, 0.0, 0.0)"
2022/11/28/23:04:04.438173,5672,1669698244,437752485,RL_myo,0.6389959529877167,0.6158019075072189,-0.17932659374132312,-0.42463414317848364,"(0.0, 0.0, 0.0, 0.0, 0.0, 0.0, 0.0, 0.0, 0.0)",3.5625,-257.9375,-96.6875,"(0.0, 0.0, 0.0, 0.0, 0.0, 0.0, 0.0, 0.0, 0.0)",0.06787109375,0.51513671875,0.18505859375,"(0.0, 0.0, 0.0, 0.0, 0.0, 0.0, 0.0, 0.0, 0.0)"
2022/11/28/23:04:04.459700,5673,1669698244,458990097,RL_myo,0.6248407691783703,0.5951155123072297,-0.20404832386082758,-0.4623589749463861,"(0.0, 0.0, 0.0, 0.0, 0.0, 0.0, 0.0, 0.0, 0.0)",-1.5,-286.875,-69.0625,"(0.0, 0.0, 0.0, 0.0, 0.0, 0.0, 0.0, 0.0, 0.0)",0.16943359375,0.4619140625,0.2734375,"(0.0, 0.0, 0.0, 0.0, 0.0, 0.0, 0.0, 0.0, 0.0)"
2022/11/28/23:04:04.476074,5674,1669698244,475749731,RL_myo,0.6105132974405869,0.5699833204859229,-0.2340850325619527,-0.49759092188918863,"(0.0, 0.0, 0.0, 0.0, 0.0, 0.0, 0.0, 0.0, 0.0)",1.8125,-308.875,-37.5625,"(0.0, 0.0, 0.0, 0.0, 0.0, 0.0, 0.0, 0.0, 0.0)",0.23974609375,0.36474609375,0.3603515625,"(0.0, 0.0, 0.0, 0.0, 0.0, 0.0, 0.0, 0.0, 0.0)"
2022/11/28/23:04:04.498370,5675,1669698244,498016834,RL_myo,0.597002982560951,0.5407268604956001,-0.26868491250723914,-0.528214273702328,"(0.0, 0.0, 0.0, 0.0, 0.0, 0.0, 0.0, 0.0, 0.0)",5.9375,-319.625,1.0625,"(0.0, 0.0, 0.0, 0.0, 0.0, 0.0, 0.0, 0.0, 0.0)",0.30322265625,0.24755859375,0.4716796875,"(0.0, 0.0, 0.0, 0.0, 0.0, 0.0, 0.0, 0.0, 0.0)"
2022/11/28/23:04:04.519380,5676,1669698244,518830299,RL_myo,0.584167669797672,0.5071412776458946,-0.308593850015362,-0.5534669762538177,"(0.0, 0.0, 0.0, 0.0, 0.0, 0.0, 0.0, 0.0, 0.0)",15.3125,-332.8125,43.375,"(0.0, 0.0, 0.0, 0.0, 0.0, 0.0, 0.0, 0.0, 0.0)",0.39697265625,0.22607421875,0.58251953125,"(0.0, 0.0, 0.0, 0.0, 0.0, 0.0, 0.0, 0.0, 0.0)"
2022/11/28/23:04:04.535791,5677,1669698244,535328626,RL_myo,0.5740338183041623,0.46917575346136053,-0.3532093255211257,-0.5706158604280291,"(0.0, 0.0, 0.0, 0.0, 0.0, 0.0, 0.0, 0.0, 0.0)",22.0,-334.0625,99.625,"(0.0, 0.0, 0.0, 0.0, 0.0, 0.0, 0.0, 0.0, 0.0)",0.48486328125,0.2373046875,0.548828125,"(0.0, 0.0, 0.0, 0.0, 0.0, 0.0, 0.0, 0.0, 0.0)"
2022/11/28/23:04:04.558573,5678,1669698244,558124542,RL_myo,0.5660425336278707,0.43048285418129956,-0.40094170836763887,-0.5775171935720199,"(0.0, 0.0, 0.0, 0.0, 0.0, 0.0, 0.0, 0.0, 0.0)",44.8125,-315.125,149.3125,"(0.0, 0.0, 0.0, 0.0, 0.0, 0.0, 0.0, 0.0, 0.0)",0.54345703125,0.18408203125,0.55810546875,"(0.0, 0.0, 0.0, 0.0, 0.0, 0.0, 0.0, 0.0, 0.0)"
