time,.header.seq,.header.stamp.secs,.header.stamp.nsecs,.header.frame_id,.orientation.x,.orientation.y,.orientation.z,.orientation.w,.orientation_covariance,.angular_velocity.x,.angular_velocity.y,.angular_velocity.z,.angular_velocity_covariance,.linear_acceleration.x,.linear_acceleration.y,.linear_acceleration.z,.linear_acceleration_covariance
2022/11/28/23:08:16.969785,8964,1669698496,969468355,RL_myo,0.7191010152645007,0.22228534184292237,-0.6583723180833617,0.005370980253206251,"(0.0, 0.0, 0.0, 0.0, 0.0, 0.0, 0.0, 0.0, 0.0)",-23.5,3.125,-8.6875,"(0.0, 0.0, 0.0, 0.0, 0.0, 0.0, 0.0, 0.0, 0.0)",0.9931640625,0.3466796875,0.01513671875,"(0.0, 0.0, 0.0, 0.0, 0.0, 0.0, 0.0, 0.0, 0.0)"
2022/11/28/23:08:16.992728,8965,1669698496,992171049,RL_myo,0.7201823966795244,0.2185145334445883,-0.6584734041341392,-0.0012207515834893202,"(0.0, 0.0, 0.0, 0.0, 0.0, 0.0, 0.0, 0.0, 0.0)",-44.0625,1.625,-12.25,"(0.0, 0.0, 0.0, 0.0, 0.0, 0.0, 0.0, 0.0, 0.0)",1.04931640625,0.3583984375,-0.0517578125,"(0.0, 0.0, 0.0, 0.0, 0.0, 0.0, 0.0, 0.0, 0.0)"
2022/11/28/23:08:17.007453,8966,1669698497,7091999,RL_myo,0.7209698953747319,0.21253108497247009,-0.6594445267210128,-0.012878822208268578,"(0.0, 0.0, 0.0, 0.0, 0.0, 0.0, 0.0, 0.0, 0.0)",-74.375,-1.4375,-22.75,"(0.0, 0.0, 0.0, 0.0, 0.0, 0.0, 0.0, 0.0, 0.0)",1.14697265625,0.42236328125,-0.16259765625,"(0.0, 0.0, 0.0, 0.0, 0.0, 0.0, 0.0, 0.0, 0.0)"
2022/11/28/23:08:17.029904,8967,1669698497,29560804,RL_myo,0.7234483541148372,0.20294151501154423,-0.6592394898164479,-0.028991645001649177,"(0.0, 0.0, 0.0, 0.0, 0.0, 0.0, 0.0, 0.0, 0.0)",-105.1875,-5.625,-29.625,"(0.0, 0.0, 0.0, 0.0, 0.0, 0.0, 0.0, 0.0, 0.0)",1.1123046875,0.44189453125,-0.220703125,"(0.0, 0.0, 0.0, 0.0, 0.0, 0.0, 0.0, 0.0, 0.0)"
2022/11/28/23:08:17.052650,8968,1669698497,52117586,RL_myo,0.7255461458616568,0.19006904166006555,-0.6594431361898998,-0.050904810772156285,"(0.0, 0.0, 0.0, 0.0, 0.0, 0.0, 0.0, 0.0, 0.0)",-141.125,-13.875,-41.0,"(0.0, 0.0, 0.0, 0.0, 0.0, 0.0, 0.0, 0.0, 0.0)",1.09765625,0.4482421875,-0.34765625,"(0.0, 0.0, 0.0, 0.0, 0.0, 0.0, 0.0, 0.0, 0.0)"
2022/11/28/23:08:17.067509,8969,1669698497,67195177,RL_myo,0.7266096708952325,0.17486238614992367,-0.6598384840023821,-0.07794040736944242,"(0.0, 0.0, 0.0, 0.0, 0.0, 0.0, 0.0, 0.0, 0.0)",-170.1875,-22.4375,-52.5625,"(0.0, 0.0, 0.0, 0.0, 0.0, 0.0, 0.0, 0.0, 0.0)",1.07958984375,0.54736328125,-0.48779296875,"(0.0, 0.0, 0.0, 0.0, 0.0, 0.0, 0.0, 0.0, 0.0)"
2022/11/28/23:08:17.090095,8970,1669698497,89707612,RL_myo,0.7252257580803246,0.15826547640988736,-0.6608331326995182,-0.11090180124827048,"(0.0, 0.0, 0.0, 0.0, 0.0, 0.0, 0.0, 0.0, 0.0)",-196.3125,-39.375,-69.8125,"(0.0, 0.0, 0.0, 0.0, 0.0, 0.0, 0.0, 0.0, 0.0)",1.0390625,0.716796875,-0.54248046875,"(0.0, 0.0, 0.0, 0.0, 0.0, 0.0, 0.0, 0.0, 0.0)"
2022/11/28/23:08:17.112514,8971,1669698497,112167119,RL_myo,0.7205845699004675,0.13873358693746932,-0.6626008886023611,-0.14990307501910455,"(0.0, 0.0, 0.0, 0.0, 0.0, 0.0, 0.0, 0.0, 0.0)",-227.9375,-63.5625,-84.6875,"(0.0, 0.0, 0.0, 0.0, 0.0, 0.0, 0.0, 0.0, 0.0)",0.927734375,0.7373046875,-0.4755859375,"(0.0, 0.0, 0.0, 0.0, 0.0, 0.0, 0.0, 0.0, 0.0)"
2022/11/28/23:08:17.128305,8972,1669698497,127666473,RL_myo,0.7117957283661269,0.1204229953752674,-0.6644932339840528,-0.19311624803210647,"(0.0, 0.0, 0.0, 0.0, 0.0, 0.0, 0.0, 0.0, 0.0)",-235.9375,-82.8125,-111.375,"(0.0, 0.0, 0.0, 0.0, 0.0, 0.0, 0.0, 0.0, 0.0)",0.90673828125,0.689453125,-0.4619140625,"(0.0, 0.0, 0.0, 0.0, 0.0, 0.0, 0.0, 0.0, 0.0)"
2022/11/28/23:08:17.150173,8973,1669698497,149769067,RL_myo,0.6988572148671627,0.10473702888314856,-0.6651655831984575,-0.24121255136725125,"(0.0, 0.0, 0.0, 0.0, 0.0, 0.0, 0.0, 0.0, 0.0)",-241.75,-95.5,-146.125,"(0.0, 0.0, 0.0, 0.0, 0.0, 0.0, 0.0, 0.0, 0.0)",0.9775390625,0.84765625,-0.3447265625,"(0.0, 0.0, 0.0, 0.0, 0.0, 0.0, 0.0, 0.0, 0.0)"
2022/11/28/23:08:17.172439,8974,1669698497,172029018,RL_myo,0.6852556387948787,0.09137148759917461,-0.6612683344351755,-0.29120465419883906,"(0.0, 0.0, 0.0, 0.0, 0.0, 0.0, 0.0, 0.0, 0.0)",-244.6875,-80.0,-167.5625,"(0.0, 0.0, 0.0, 0.0, 0.0, 0.0, 0.0, 0.0, 0.0)",1.04150390625,0.85546875,-0.18310546875,"(0.0, 0.0, 0.0, 0.0, 0.0, 0.0, 0.0, 0.0, 0.0)"
2022/11/28/23:08:17.187503,8975,1669698497,187159061,RL_myo,0.6727140400293009,0.08703413364922728,-0.6519625635631457,-0.33885940394145153,"(0.0, 0.0, 0.0, 0.0, 0.0, 0.0, 0.0, 0.0, 0.0)",-208.75,-41.0,-195.1875,"(0.0, 0.0, 0.0, 0.0, 0.0, 0.0, 0.0, 0.0, 0.0)",1.08349609375,0.85693359375,0.0146484375,"(0.0, 0.0, 0.0, 0.0, 0.0, 0.0, 0.0, 0.0, 0.0)"
2022/11/28/23:08:17.210063,8976,1669698497,209548711,RL_myo,0.662101456284471,0.09564094598062003,-0.6364669972469086,-0.38390654130063817,"(0.0, 0.0, 0.0, 0.0, 0.0, 0.0, 0.0, 0.0, 0.0)",-156.9375,10.9375,-238.0,"(0.0, 0.0, 0.0, 0.0, 0.0, 0.0, 0.0, 0.0, 0.0)",1.23583984375,0.70263671875,0.50048828125,"(0.0, 0.0, 0.0, 0.0, 0.0, 0.0, 0.0, 0.0, 0.0)"
2022/11/28/23:08:17.232590,8977,1669698497,232178449,RL_myo,0.6528710134031886,0.11242296033361443,-0.6168614875634316,-0.424973438003777,"(0.0, 0.0, 0.0, 0.0, 0.0, 0.0, 0.0, 0.0, 0.0)",-115.9375,49.3125,-259.8125,"(0.0, 0.0, 0.0, 0.0, 0.0, 0.0, 0.0, 0.0, 0.0)",1.44873046875,0.4443359375,0.87548828125,"(0.0, 0.0, 0.0, 0.0, 0.0, 0.0, 0.0, 0.0, 0.0)"
2022/11/28/23:08:17.247741,8978,1669698497,247220754,RL_myo,0.6470287332944387,0.14367565684134598,-0.5934402767495356,-0.45666153971408263,"(0.0, 0.0, 0.0, 0.0, 0.0, 0.0, 0.0, 0.0, 0.0)",-36.75,116.25,-274.0625,"(0.0, 0.0, 0.0, 0.0, 0.0, 0.0, 0.0, 0.0, 0.0)",1.54931640625,0.41455078125,1.13720703125,"(0.0, 0.0, 0.0, 0.0, 0.0, 0.0, 0.0, 0.0, 0.0)"
2022/11/28/23:08:17.269849,8979,1669698497,269476890,RL_myo,0.6455578838534627,0.1862150991431327,-0.5668849035861739,-0.476676474699399,"(0.0, 0.0, 0.0, 0.0, 0.0, 0.0, 0.0, 0.0, 0.0)",37.875,181.0,-260.5625,"(0.0, 0.0, 0.0, 0.0, 0.0, 0.0, 0.0, 0.0, 0.0)",1.369140625,0.3525390625,1.40771484375,"(0.0, 0.0, 0.0, 0.0, 0.0, 0.0, 0.0, 0.0, 0.0)"
2022/11/28/23:08:17.292465,8980,1669698497,292056322,RL_myo,0.647635702557089,0.23717956273083102,-0.5356986675472218,-0.4871763432108835,"(0.0, 0.0, 0.0, 0.0, 0.0, 0.0, 0.0, 0.0, 0.0)",85.25,244.1875,-245.6875,"(0.0, 0.0, 0.0, 0.0, 0.0, 0.0, 0.0, 0.0, 0.0)",1.0341796875,0.3095703125,1.44287109375,"(0.0, 0.0, 0.0, 0.0, 0.0, 0.0, 0.0, 0.0, 0.0)"
2022/11/28/23:08:17.307849,8981,1669698497,307221174,RL_myo,0.6517880367966115,0.29321001299474875,-0.49730957241490686,-0.49181646226304854,"(0.0, 0.0, 0.0, 0.0, 0.0, 0.0, 0.0, 0.0, 0.0)",99.0,300.75,-239.4375,"(0.0, 0.0, 0.0, 0.0, 0.0, 0.0, 0.0, 0.0, 0.0)",0.6318359375,0.26708984375,1.33349609375,"(0.0, 0.0, 0.0, 0.0, 0.0, 0.0, 0.0, 0.0, 0.0)"
2022/11/28/23:08:17.330124,8982,1669698497,329734325,RL_myo,0.6569319846738392,0.3525447499280958,-0.45258298488864795,-0.48920466943796537,"(0.0, 0.0, 0.0, 0.0, 0.0, 0.0, 0.0, 0.0, 0.0)",111.0625,350.0,-223.8125,"(0.0, 0.0, 0.0, 0.0, 0.0, 0.0, 0.0, 0.0, 0.0)",0.2568359375,0.35302734375,1.19580078125,"(0.0, 0.0, 0.0, 0.0, 0.0, 0.0, 0.0, 0.0, 0.0)"
2022/11/28/23:08:17.352689,8983,1669698497,352263689,RL_myo,0.6663159703978209,0.4021577291335753,-0.3965425354652965,-0.48687391186804224,"(0.0, 0.0, 0.0, 0.0, 0.0, 0.0, 0.0, 0.0, 0.0)",29.4375,377.875,-208.6875,"(0.0, 0.0, 0.0, 0.0, 0.0, 0.0, 0.0, 0.0, 0.0)",0.06396484375,0.3642578125,0.9404296875,"(0.0, 0.0, 0.0, 0.0, 0.0, 0.0, 0.0, 0.0, 0.0)"
2022/11/28/23:08:17.367371,8984,1669698497,366995573,RL_myo,0.6798360806812566,0.44490260298847895,-0.3350960749631979,-0.47706938468348903,"(0.0, 0.0, 0.0, 0.0, 0.0, 0.0, 0.0, 0.0, 0.0)",-9.8125,407.25,-163.5625,"(0.0, 0.0, 0.0, 0.0, 0.0, 0.0, 0.0, 0.0, 0.0)",-0.04150390625,0.41259765625,0.63427734375,"(0.0, 0.0, 0.0, 0.0, 0.0, 0.0, 0.0, 0.0, 0.0)"
2022/11/28/23:08:17.390063,8985,1669698497,389634609,RL_myo,0.6956671397091961,0.4819866118866048,-0.27422639574604474,-0.4566574433500794,"(0.0, 0.0, 0.0, 0.0, 0.0, 0.0, 0.0, 0.0, 0.0)",-18.0,422.375,-104.25,"(0.0, 0.0, 0.0, 0.0, 0.0, 0.0, 0.0, 0.0, 0.0)",-0.0302734375,0.322265625,0.44873046875,"(0.0, 0.0, 0.0, 0.0, 0.0, 0.0, 0.0, 0.0, 0.0)"
2022/11/28/23:08:17.412553,8986,1669698497,412138700,RL_myo,0.7133782392075124,0.5113520609240708,-0.21368388222668558,-0.42889364193285334,"(0.0, 0.0, 0.0, 0.0, 0.0, 0.0, 0.0, 0.0, 0.0)",-41.5625,424.4375,-56.5625,"(0.0, 0.0, 0.0, 0.0, 0.0, 0.0, 0.0, 0.0, 0.0)",-0.05224609375,0.23974609375,0.419921875,"(0.0, 0.0, 0.0, 0.0, 0.0, 0.0, 0.0, 0.0, 0.0)"
2022/11/28/23:08:17.427809,8987,1669698497,427306413,RL_myo,0.7312201489182937,0.5349870288204378,-0.15729167977983663,-0.39289349737788454,"(0.0, 0.0, 0.0, 0.0, 0.0, 0.0, 0.0, 0.0, 0.0)",-48.1875,416.8125,-1.875,"(0.0, 0.0, 0.0, 0.0, 0.0, 0.0, 0.0, 0.0, 0.0)",-0.16845703125,0.30908203125,0.26611328125,"(0.0, 0.0, 0.0, 0.0, 0.0, 0.0, 0.0, 0.0, 0.0)"
2022/11/28/23:08:17.450030,8988,1669698497,449676990,RL_myo,0.7490287573203331,0.5540200480929485,-0.1069953888186558,-0.3472314700452555,"(0.0, 0.0, 0.0, 0.0, 0.0, 0.0, 0.0, 0.0, 0.0)",-46.6875,409.75,62.5625,"(0.0, 0.0, 0.0, 0.0, 0.0, 0.0, 0.0, 0.0, 0.0)",-0.25830078125,0.3994140625,0.181640625,"(0.0, 0.0, 0.0, 0.0, 0.0, 0.0, 0.0, 0.0, 0.0)"
2022/11/28/23:08:17.472633,8989,1669698497,472106695,RL_myo,0.7645410523247884,0.5698351640191781,-0.06323363645285653,-0.2945613219319359,"(0.0, 0.0, 0.0, 0.0, 0.0, 0.0, 0.0, 0.0, 0.0)",-35.875,395.9375,111.3125,"(0.0, 0.0, 0.0, 0.0, 0.0, 0.0, 0.0, 0.0, 0.0)",-0.28759765625,0.44873046875,0.1689453125,"(0.0, 0.0, 0.0, 0.0, 0.0, 0.0, 0.0, 0.0, 0.0)"
2022/11/28/23:08:17.487659,8990,1669698497,487205266,RL_myo,0.7767656129691908,0.5823605778201358,-0.027161771001987262,-0.238230094878104,"(0.0, 0.0, 0.0, 0.0, 0.0, 0.0, 0.0, 0.0, 0.0)",-24.9375,367.4375,147.625,"(0.0, 0.0, 0.0, 0.0, 0.0, 0.0, 0.0, 0.0, 0.0)",-0.2734375,0.4853515625,0.2001953125,"(0.0, 0.0, 0.0, 0.0, 0.0, 0.0, 0.0, 0.0, 0.0)"
2022/11/28/23:08:17.510238,8991,1669698497,509773015,RL_myo,0.7831505563676341,0.5939395264604043,0.0012817521380812343,-0.184145057171004,"(0.0, 0.0, 0.0, 0.0, 0.0, 0.0, 0.0, 0.0, 0.0)",0.8125,324.75,153.9375,"(0.0, 0.0, 0.0, 0.0, 0.0, 0.0, 0.0, 0.0, 0.0)",-0.19287109375,0.56494140625,0.24560546875,"(0.0, 0.0, 0.0, 0.0, 0.0, 0.0, 0.0, 0.0, 0.0)"
2022/11/28/23:08:17.533054,8992,1669698497,532413721,RL_myo,0.7858756056869296,0.6028810374656158,0.024598669444025837,-0.13538424026513474,"(0.0, 0.0, 0.0, 0.0, 0.0, 0.0, 0.0, 0.0, 0.0)",8.0625,281.3125,141.125,"(0.0, 0.0, 0.0, 0.0, 0.0, 0.0, 0.0, 0.0, 0.0)",-0.05126953125,0.60107421875,0.31298828125,"(0.0, 0.0, 0.0, 0.0, 0.0, 0.0, 0.0, 0.0, 0.0)"
2022/11/28/23:08:17.547552,8993,1669698497,547179698,RL_myo,0.7842101686291766,0.6134271633501888,0.03808741790353411,-0.08526942758211081,"(0.0, 0.0, 0.0, 0.0, 0.0, 0.0, 0.0, 0.0, 0.0)",37.625,243.75,175.375,"(0.0, 0.0, 0.0, 0.0, 0.0, 0.0, 0.0, 0.0, 0.0)",0.11328125,0.72802734375,0.30322265625,"(0.0, 0.0, 0.0, 0.0, 0.0, 0.0, 0.0, 0.0, 0.0)"
2022/11/28/23:08:17.569978,8994,1669698497,569632530,RL_myo,0.7796782724095468,0.6234862652781838,0.04535000441524137,-0.0361945526490419,"(0.0, 0.0, 0.0, 0.0, 0.0, 0.0, 0.0, 0.0, 0.0)",46.4375,213.0,188.4375,"(0.0, 0.0, 0.0, 0.0, 0.0, 0.0, 0.0, 0.0, 0.0)",0.29443359375,0.98828125,0.23193359375,"(0.0, 0.0, 0.0, 0.0, 0.0, 0.0, 0.0, 0.0, 0.0)"
2022/11/28/23:08:17.592918,8995,1669698497,592336416,RL_myo,0.776039657299838,0.6283272166308426,0.05420192037771403,0.005432399677496113,"(0.0, 0.0, 0.0, 0.0, 0.0, 0.0, 0.0, 0.0, 0.0)",21.5,191.625,148.625,"(0.0, 0.0, 0.0, 0.0, 0.0, 0.0, 0.0, 0.0, 0.0)",0.2802734375,1.0810546875,0.22021484375,"(0.0, 0.0, 0.0, 0.0, 0.0, 0.0, 0.0, 0.0, 0.0)"
2022/11/28/23:08:17.608126,8996,1669698497,607567310,RL_myo,0.7734009146090722,0.6297196145546364,0.059633232860315966,0.04181040379663914,"(0.0, 0.0, 0.0, 0.0, 0.0, 0.0, 0.0, 0.0, 0.0)",4.5,156.9375,138.0625,"(0.0, 0.0, 0.0, 0.0, 0.0, 0.0, 0.0, 0.0, 0.0)",0.23388671875,0.935546875,0.18896484375,"(0.0, 0.0, 0.0, 0.0, 0.0, 0.0, 0.0, 0.0, 0.0)"
2022/11/28/23:08:17.630260,8997,1669698497,629834651,RL_myo,0.7698514681696876,0.6309937745134568,0.06085323981330204,0.0739760548181766,"(0.0, 0.0, 0.0, 0.0, 0.0, 0.0, 0.0, 0.0, 0.0)",8.0,123.4375,134.625,"(0.0, 0.0, 0.0, 0.0, 0.0, 0.0, 0.0, 0.0, 0.0)",0.30029296875,0.78564453125,0.177734375,"(0.0, 0.0, 0.0, 0.0, 0.0, 0.0, 0.0, 0.0, 0.0)"
2022/11/28/23:08:17.652686,8998,1669698497,652236461,RL_myo,0.763452303368017,0.6350912389306217,0.0597553409815549,0.10113850868890344,"(0.0, 0.0, 0.0, 0.0, 0.0, 0.0, 0.0, 0.0, 0.0)",31.125,94.875,121.0625,"(0.0, 0.0, 0.0, 0.0, 0.0, 0.0, 0.0, 0.0, 0.0)",0.427734375,0.85400390625,0.1650390625,"(0.0, 0.0, 0.0, 0.0, 0.0, 0.0, 0.0, 0.0, 0.0)"
2022/11/28/23:08:17.670668,8999,1669698497,670393705,RL_myo,0.7556185660222259,0.6405574950995426,0.05566880460556345,0.12501064893880914,"(0.0, 0.0, 0.0, 0.0, 0.0, 0.0, 0.0, 0.0, 0.0)",39.3125,74.5625,93.6875,"(0.0, 0.0, 0.0, 0.0, 0.0, 0.0, 0.0, 0.0, 0.0)",0.537109375,0.92529296875,0.13330078125,"(0.0, 0.0, 0.0, 0.0, 0.0, 0.0, 0.0, 0.0, 0.0)"
2022/11/28/23:08:17.689983,9000,1669698497,689582824,RL_myo,0.7505522276662776,0.6426328767786736,0.05408175615747576,0.1441162824918739,"(0.0, 0.0, 0.0, 0.0, 0.0, 0.0, 0.0, 0.0, 0.0)",20.4375,67.875,67.4375,"(0.0, 0.0, 0.0, 0.0, 0.0, 0.0, 0.0, 0.0, 0.0)",0.46484375,0.90673828125,0.162109375,"(0.0, 0.0, 0.0, 0.0, 0.0, 0.0, 0.0, 0.0, 0.0)"
2022/11/28/23:08:17.712739,9001,1669698497,712162971,RL_myo,0.7475906636235784,0.6425446534916239,0.05298078837567489,0.15949170509866184,"(0.0, 0.0, 0.0, 0.0, 0.0, 0.0, 0.0, 0.0, 0.0)",4.8125,55.375,57.6875,"(0.0, 0.0, 0.0, 0.0, 0.0, 0.0, 0.0, 0.0, 0.0)",0.333984375,0.9267578125,0.16357421875,"(0.0, 0.0, 0.0, 0.0, 0.0, 0.0, 0.0, 0.0, 0.0)"
2022/11/28/23:08:17.727796,9002,1669698497,727288007,RL_myo,0.7444917942911077,0.6432282141706726,0.0509064652323345,0.17145834632809065,"(0.0, 0.0, 0.0, 0.0, 0.0, 0.0, 0.0, 0.0, 0.0)",8.6875,37.8125,48.25,"(0.0, 0.0, 0.0, 0.0, 0.0, 0.0, 0.0, 0.0, 0.0)",0.3408203125,0.9521484375,0.1640625,"(0.0, 0.0, 0.0, 0.0, 0.0, 0.0, 0.0, 0.0, 0.0)"
2022/11/28/23:08:17.749873,9003,1669698497,749536037,RL_myo,0.7414354557255175,0.6446282907645666,0.04846462104602461,0.17994169123889237,"(0.0, 0.0, 0.0, 0.0, 0.0, 0.0, 0.0, 0.0, 0.0)",10.625,23.1875,34.125,"(0.0, 0.0, 0.0, 0.0, 0.0, 0.0, 0.0, 0.0, 0.0)",0.37353515625,0.98486328125,0.13671875,"(0.0, 0.0, 0.0, 0.0, 0.0, 0.0, 0.0, 0.0, 0.0)"
2022/11/28/23:08:17.772603,9004,1669698497,772061347,RL_myo,0.7391605827199735,0.6455905436357687,0.04712072418330467,0.1861024456410569,"(0.0, 0.0, 0.0, 0.0, 0.0, 0.0, 0.0, 0.0, 0.0)",5.9375,18.75,23.6875,"(0.0, 0.0, 0.0, 0.0, 0.0, 0.0, 0.0, 0.0, 0.0)",0.3232421875,1.03076171875,0.1259765625,"(0.0, 0.0, 0.0, 0.0, 0.0, 0.0, 0.0, 0.0, 0.0)"
2022/11/28/23:08:17.787898,9005,1669698497,787297487,RL_myo,0.7388057271843046,0.6448069813264206,0.046327953315671445,0.19037797943554577,"(0.0, 0.0, 0.0, 0.0, 0.0, 0.0, 0.0, 0.0, 0.0)",-5.875,14.25,18.6875,"(0.0, 0.0, 0.0, 0.0, 0.0, 0.0, 0.0, 0.0, 0.0)",0.2177734375,0.97900390625,0.138671875,"(0.0, 0.0, 0.0, 0.0, 0.0, 0.0, 0.0, 0.0, 0.0)"
2022/11/28/23:08:17.810005,9006,1669698497,809575080,RL_myo,0.7388323690402403,0.6440367090006258,0.04468153454539457,0.19325374094360548,"(0.0, 0.0, 0.0, 0.0, 0.0, 0.0, 0.0, 0.0, 0.0)",-9.3125,5.5,15.0625,"(0.0, 0.0, 0.0, 0.0, 0.0, 0.0, 0.0, 0.0, 0.0)",0.2216796875,0.951171875,0.11328125,"(0.0, 0.0, 0.0, 0.0, 0.0, 0.0, 0.0, 0.0, 0.0)"
2022/11/28/23:08:17.832570,9007,1669698497,832135200,RL_myo,0.7378415985212521,0.6446347718384301,0.04284950381882188,0.19544745189154938,"(0.0, 0.0, 0.0, 0.0, 0.0, 0.0, 0.0, 0.0, 0.0)",-1.4375,1.4375,13.125,"(0.0, 0.0, 0.0, 0.0, 0.0, 0.0, 0.0, 0.0, 0.0)",0.2451171875,0.9658203125,0.08935546875,"(0.0, 0.0, 0.0, 0.0, 0.0, 0.0, 0.0, 0.0, 0.0)"
2022/11/28/23:08:17.847659,9008,1669698497,847258567,RL_myo,0.7368465452347036,0.6454121412617425,0.041566641592514345,0.19690746810198423,"(0.0, 0.0, 0.0, 0.0, 0.0, 0.0, 0.0, 0.0, 0.0)",2.4375,0.0,10.9375,"(0.0, 0.0, 0.0, 0.0, 0.0, 0.0, 0.0, 0.0, 0.0)",0.21142578125,0.96728515625,0.126953125,"(0.0, 0.0, 0.0, 0.0, 0.0, 0.0, 0.0, 0.0, 0.0)"
2022/11/28/23:08:17.870084,9009,1669698497,869611501,RL_myo,0.7365347082155799,0.6453452780279544,0.03967411621282232,0.198675766573441,"(0.0, 0.0, 0.0, 0.0, 0.0, 0.0, 0.0, 0.0, 0.0)",-1.9375,-0.9375,12.75,"(0.0, 0.0, 0.0, 0.0, 0.0, 0.0, 0.0, 0.0, 0.0)",0.220703125,0.9287109375,0.14990234375,"(0.0, 0.0, 0.0, 0.0, 0.0, 0.0, 0.0, 0.0, 0.0)"
2022/11/28/23:08:17.893227,9010,1669698497,892457962,RL_myo,0.7371008552585014,0.6445054596451238,0.03784386636802508,0.1996569143384033,"(0.0, 0.0, 0.0, 0.0, 0.0, 0.0, 0.0, 0.0, 0.0)",-8.4375,-3.125,9.125,"(0.0, 0.0, 0.0, 0.0, 0.0, 0.0, 0.0, 0.0, 0.0)",0.21142578125,0.9501953125,0.16064453125,"(0.0, 0.0, 0.0, 0.0, 0.0, 0.0, 0.0, 0.0, 0.0)"
2022/11/28/23:08:17.907995,9011,1669698497,907434940,RL_myo,0.7366667833452927,0.6451709255083059,0.037538327264674376,0.199166767259565,"(0.0, 0.0, 0.0, 0.0, 0.0, 0.0, 0.0, 0.0, 0.0)",4.25,-3.6875,0.3125,"(0.0, 0.0, 0.0, 0.0, 0.0, 0.0, 0.0, 0.0, 0.0)",0.201171875,1.01171875,0.17138671875,"(0.0, 0.0, 0.0, 0.0, 0.0, 0.0, 0.0, 0.0, 0.0)"
2022/11/28/23:08:17.929895,9012,1669698497,929437637,RL_myo,0.7362540476958903,0.6459161277332044,0.03796634203837206,0.19819407170191974,"(0.0, 0.0, 0.0, 0.0, 0.0, 0.0, 0.0, 0.0, 0.0)",1.4375,-2.375,-1.8125,"(0.0, 0.0, 0.0, 0.0, 0.0, 0.0, 0.0, 0.0, 0.0)",0.169921875,1.03125,0.11572265625,"(0.0, 0.0, 0.0, 0.0, 0.0, 0.0, 0.0, 0.0, 0.0)"
2022/11/28/23:08:17.952938,9013,1669698497,952409744,RL_myo,0.7376389285946737,0.6444956100149906,0.037477062652637956,0.19776169868818727,"(0.0, 0.0, 0.0, 0.0, 0.0, 0.0, 0.0, 0.0, 0.0)",-12.8125,-2.4375,0.5,"(0.0, 0.0, 0.0, 0.0, 0.0, 0.0, 0.0, 0.0, 0.0)",0.1650390625,0.9892578125,0.15185546875,"(0.0, 0.0, 0.0, 0.0, 0.0, 0.0, 0.0, 0.0, 0.0)"
2022/11/28/23:08:17.966809,9014,1669698497,966619968,RL_myo,0.7391596257857722,0.6428430370582785,0.03686642559658187,0.1975771848611515,"(0.0, 0.0, 0.0, 0.0, 0.0, 0.0, 0.0, 0.0, 0.0)",-13.9375,-2.125,2.1875,"(0.0, 0.0, 0.0, 0.0, 0.0, 0.0, 0.0, 0.0, 0.0)",0.1474609375,0.9150390625,0.15380859375,"(0.0, 0.0, 0.0, 0.0, 0.0, 0.0, 0.0, 0.0, 0.0)"
2022/11/28/23:08:17.990601,9015,1669698497,989944458,RL_myo,0.7395936005739928,0.6423605721251713,0.036561571902601446,0.19757897871238878,"(0.0, 0.0, 0.0, 0.0, 0.0, 0.0, 0.0, 0.0, 0.0)",-5.0625,-1.1875,3.75,"(0.0, 0.0, 0.0, 0.0, 0.0, 0.0, 0.0, 0.0, 0.0)",0.14599609375,0.919921875,0.14794921875,"(0.0, 0.0, 0.0, 0.0, 0.0, 0.0, 0.0, 0.0, 0.0)"
2022/11/28/23:08:18.013201,9016,1669698498,12459278,RL_myo,0.7388787497758944,0.6431693834273936,0.03644036461100446,0.19764472464059032,"(0.0, 0.0, 0.0, 0.0, 0.0, 0.0, 0.0, 0.0, 0.0)",3.8125,-1.1875,4.3125,"(0.0, 0.0, 0.0, 0.0, 0.0, 0.0, 0.0, 0.0, 0.0)",0.1591796875,0.96923828125,0.14013671875,"(0.0, 0.0, 0.0, 0.0, 0.0, 0.0, 0.0, 0.0, 0.0)"
2022/11/28/23:08:18.029655,9017,1669698498,29354333,RL_myo,0.7380100701179412,0.6443167893610939,0.03643966684810279,0.19715263638085764,"(0.0, 0.0, 0.0, 0.0, 0.0, 0.0, 0.0, 0.0, 0.0)",5.4375,-2.8125,1.4375,"(0.0, 0.0, 0.0, 0.0, 0.0, 0.0, 0.0, 0.0, 0.0)",0.1728515625,1.00390625,0.13232421875,"(0.0, 0.0, 0.0, 0.0, 0.0, 0.0, 0.0, 0.0, 0.0)"
2022/11/28/23:08:18.049889,9018,1669698498,49550056,RL_myo,0.7378755122091337,0.6448552226395482,0.037537715279065034,0.1956844149344431,"(0.0, 0.0, 0.0, 0.0, 0.0, 0.0, 0.0, 0.0, 0.0)",0.3125,-1.5,-3.75,"(0.0, 0.0, 0.0, 0.0, 0.0, 0.0, 0.0, 0.0, 0.0)",0.1337890625,1.08544921875,0.12890625,"(0.0, 0.0, 0.0, 0.0, 0.0, 0.0, 0.0, 0.0, 0.0)"
2022/11/28/23:08:18.072435,9019,1669698498,72057485,RL_myo,0.7383699268783764,0.6448605668736089,0.03967433681664418,0.1933666139001981,"(0.0, 0.0, 0.0, 0.0, 0.0, 0.0, 0.0, 0.0, 0.0)",-2.625,-0.4375,-9.5,"(0.0, 0.0, 0.0, 0.0, 0.0, 0.0, 0.0, 0.0, 0.0)",0.0947265625,1.1484375,0.1435546875,"(0.0, 0.0, 0.0, 0.0, 0.0, 0.0, 0.0, 0.0, 0.0)"
2022/11/28/23:08:18.095835,9020,1669698498,95098018,RL_myo,0.7399195936680193,0.6439656585709951,0.043399012629760904,0.1895883730352143,"(0.0, 0.0, 0.0, 0.0, 0.0, 0.0, 0.0, 0.0, 0.0)",-5.375,1.0625,-23.6875,"(0.0, 0.0, 0.0, 0.0, 0.0, 0.0, 0.0, 0.0, 0.0)",0.0859375,1.10302734375,0.173828125,"(0.0, 0.0, 0.0, 0.0, 0.0, 0.0, 0.0, 0.0, 0.0)"
2022/11/28/23:08:18.110172,9021,1669698498,109662294,RL_myo,0.741053299360561,0.6438209539292642,0.04968432465855338,0.18402732044906442,"(0.0, 0.0, 0.0, 0.0, 0.0, 0.0, 0.0, 0.0, 0.0)",0.1875,5.5625,-42.375,"(0.0, 0.0, 0.0, 0.0, 0.0, 0.0, 0.0, 0.0, 0.0)",0.1103515625,1.140625,0.14990234375,"(0.0, 0.0, 0.0, 0.0, 0.0, 0.0, 0.0, 0.0, 0.0)"
2022/11/28/23:08:18.132607,9022,1669698498,132127046,RL_myo,0.7414338687485391,0.6445048341249547,0.059634550898767,0.17701146121435446,"(0.0, 0.0, 0.0, 0.0, 0.0, 0.0, 0.0, 0.0, 0.0)",14.6875,14.5,-61.1875,"(0.0, 0.0, 0.0, 0.0, 0.0, 0.0, 0.0, 0.0, 0.0)",0.091796875,1.1796875,0.20361328125,"(0.0, 0.0, 0.0, 0.0, 0.0, 0.0, 0.0, 0.0, 0.0)"
2022/11/28/23:08:18.155597,9023,1669698498,155011415,RL_myo,0.7436368184821825,0.6433499192975626,0.07361290347939853,0.1663920189758212,"(0.0, 0.0, 0.0, 0.0, 0.0, 0.0, 0.0, 0.0, 0.0)",10.125,18.6875,-92.25,"(0.0, 0.0, 0.0, 0.0, 0.0, 0.0, 0.0, 0.0, 0.0)",0.01611328125,1.12548828125,0.267578125,"(0.0, 0.0, 0.0, 0.0, 0.0, 0.0, 0.0, 0.0, 0.0)"
2022/11/28/23:08:18.170080,9024,1669698498,169667720,RL_myo,0.745644197022083,0.642367348515095,0.09180164311732258,0.15149712647419858,"(0.0, 0.0, 0.0, 0.0, 0.0, 0.0, 0.0, 0.0, 0.0)",13.3125,22.3125,-131.375,"(0.0, 0.0, 0.0, 0.0, 0.0, 0.0, 0.0, 0.0, 0.0)",-0.03515625,1.17138671875,0.26171875,"(0.0, 0.0, 0.0, 0.0, 0.0, 0.0, 0.0, 0.0, 0.0)"
2022/11/28/23:08:18.192889,9025,1669698498,192376852,RL_myo,0.7469104979626949,0.6415605331442255,0.11322374550304806,0.13306078986342038,"(0.0, 0.0, 0.0, 0.0, 0.0, 0.0, 0.0, 0.0, 0.0)",20.1875,23.5,-158.25,"(0.0, 0.0, 0.0, 0.0, 0.0, 0.0, 0.0, 0.0, 0.0)",-0.04443359375,1.20849609375,0.18701171875,"(0.0, 0.0, 0.0, 0.0, 0.0, 0.0, 0.0, 0.0, 0.0)"
2022/11/28/23:08:18.214498,9026,1669698498,214233875,RL_myo,0.7484051492344561,0.6390223886579823,0.13666741123366344,0.11341136671377698,"(0.0, 0.0, 0.0, 0.0, 0.0, 0.0, 0.0, 0.0, 0.0)",14.4375,29.1875,-173.25,"(0.0, 0.0, 0.0, 0.0, 0.0, 0.0, 0.0, 0.0, 0.0)",-0.05615234375,1.13232421875,0.1728515625,"(0.0, 0.0, 0.0, 0.0, 0.0, 0.0, 0.0, 0.0, 0.0)"
2022/11/28/23:08:18.229555,9027,1669698498,229259490,RL_myo,0.7501605510735707,0.634492996615929,0.1608969253563818,0.09375480931236815,"(0.0, 0.0, 0.0, 0.0, 0.0, 0.0, 0.0, 0.0, 0.0)",5.25,33.5625,-178.5,"(0.0, 0.0, 0.0, 0.0, 0.0, 0.0, 0.0, 0.0, 0.0)",-0.0869140625,1.0380859375,0.15380859375,"(0.0, 0.0, 0.0, 0.0, 0.0, 0.0, 0.0, 0.0, 0.0)"
2022/11/28/23:08:18.252747,9028,1669698498,252230167,RL_myo,0.7507464365121251,0.6297114622354143,0.18500101211937003,0.07495257105990973,"(0.0, 0.0, 0.0, 0.0, 0.0, 0.0, 0.0, 0.0, 0.0)",7.5,37.25,-174.1875,"(0.0, 0.0, 0.0, 0.0, 0.0, 0.0, 0.0, 0.0, 0.0)",-0.1240234375,0.9169921875,0.1171875,"(0.0, 0.0, 0.0, 0.0, 0.0, 0.0, 0.0, 0.0, 0.0)"
2022/11/28/23:08:18.275660,9029,1669698498,275030851,RL_myo,0.7492514013489388,0.6261361201659807,0.20808130567808816,0.057254404437092024,"(0.0, 0.0, 0.0, 0.0, 0.0, 0.0, 0.0, 0.0, 0.0)",18.5625,38.875,-163.6875,"(0.0, 0.0, 0.0, 0.0, 0.0, 0.0, 0.0, 0.0, 0.0)",-0.15234375,0.8505859375,0.11865234375,"(0.0, 0.0, 0.0, 0.0, 0.0, 0.0, 0.0, 0.0, 0.0)"
2022/11/28/23:08:18.289909,9030,1669698498,289558410,RL_myo,0.7457010749434746,0.6242354828064921,0.22931971339630303,0.04089545061898404,"(0.0, 0.0, 0.0, 0.0, 0.0, 0.0, 0.0, 0.0, 0.0)",31.5,37.375,-149.0625,"(0.0, 0.0, 0.0, 0.0, 0.0, 0.0, 0.0, 0.0, 0.0)",-0.16650390625,0.80126953125,0.12158203125,"(0.0, 0.0, 0.0, 0.0, 0.0, 0.0, 0.0, 0.0, 0.0)"
2022/11/28/23:08:18.312529,9031,1669698498,312149047,RL_myo,0.7418550184942906,0.6225258625656795,0.24775296363899335,0.027039803619628988,"(0.0, 0.0, 0.0, 0.0, 0.0, 0.0, 0.0, 0.0, 0.0)",29.6875,35.3125,-128.25,"(0.0, 0.0, 0.0, 0.0, 0.0, 0.0, 0.0, 0.0, 0.0)",-0.162109375,0.7734375,0.11572265625,"(0.0, 0.0, 0.0, 0.0, 0.0, 0.0, 0.0, 0.0, 0.0)"
2022/11/28/23:08:18.335299,9032,1669698498,334832429,RL_myo,0.7381898947599026,0.6208754431534421,0.2632555826111675,0.016907441776789565,"(0.0, 0.0, 0.0, 0.0, 0.0, 0.0, 0.0, 0.0, 0.0)",22.9375,35.0625,-101.6875,"(0.0, 0.0, 0.0, 0.0, 0.0, 0.0, 0.0, 0.0, 0.0)",-0.20947265625,0.75146484375,0.08349609375,"(0.0, 0.0, 0.0, 0.0, 0.0, 0.0, 0.0, 0.0, 0.0)"
2022/11/28/23:08:18.349963,9033,1669698498,349587440,RL_myo,0.7351826960289899,0.6196409074376343,0.2746635228003698,0.010559286543214218,"(0.0, 0.0, 0.0, 0.0, 0.0, 0.0, 0.0, 0.0, 0.0)",16.6875,31.125,-73.5,"(0.0, 0.0, 0.0, 0.0, 0.0, 0.0, 0.0, 0.0, 0.0)",-0.23486328125,0.71875,0.0751953125,"(0.0, 0.0, 0.0, 0.0, 0.0, 0.0, 0.0, 0.0, 0.0)"
2022/11/28/23:08:18.372420,9034,1669698498,372063636,RL_myo,0.7321428954312287,0.619834189504304,0.28235873566193115,0.006775144759722083,"(0.0, 0.0, 0.0, 0.0, 0.0, 0.0, 0.0, 0.0, 0.0)",17.0,23.8125,-47.125,"(0.0, 0.0, 0.0, 0.0, 0.0, 0.0, 0.0, 0.0, 0.0)",-0.24951171875,0.7099609375,0.0400390625,"(0.0, 0.0, 0.0, 0.0, 0.0, 0.0, 0.0, 0.0, 0.0)"
2022/11/28/23:08:18.395534,9035,1669698498,394846916,RL_myo,0.7294750767225423,0.6208869952658104,0.28694354745817685,0.005371417182795057,"(0.0, 0.0, 0.0, 0.0, 0.0, 0.0, 0.0, 0.0, 0.0)",15.1875,18.25,-25.0,"(0.0, 0.0, 0.0, 0.0, 0.0, 0.0, 0.0, 0.0, 0.0)",-0.27197265625,0.75927734375,0.03759765625,"(0.0, 0.0, 0.0, 0.0, 0.0, 0.0, 0.0, 0.0, 0.0)"
2022/11/28/23:08:18.410093,9036,1669698498,409680366,RL_myo,0.7286531976710235,0.6211680007285983,0.28839724903631986,0.0064698642111851645,"(0.0, 0.0, 0.0, 0.0, 0.0, 0.0, 0.0, 0.0, 0.0)",1.375,11.25,-4.4375,"(0.0, 0.0, 0.0, 0.0, 0.0, 0.0, 0.0, 0.0, 0.0)",-0.28173828125,0.76513671875,0.03564453125,"(0.0, 0.0, 0.0, 0.0, 0.0, 0.0, 0.0, 0.0, 0.0)"
2022/11/28/23:08:18.436410,9037,1669698498,436136007,RL_myo,0.7297837022459956,0.6202184843193009,0.2874942487101572,0.009583141623671907,"(0.0, 0.0, 0.0, 0.0, 0.0, 0.0, 0.0, 0.0, 0.0)",-11.8125,5.9375,12.9375,"(0.0, 0.0, 0.0, 0.0, 0.0, 0.0, 0.0, 0.0, 0.0)",-0.3173828125,0.76513671875,0.07568359375,"(0.0, 0.0, 0.0, 0.0, 0.0, 0.0, 0.0, 0.0, 0.0)"
2022/11/28/23:08:18.455362,9038,1669698498,454771041,RL_myo,0.7316532774160948,0.6192226995400252,0.2847386784972121,0.013061967245102552,"(0.0, 0.0, 0.0, 0.0, 0.0, 0.0, 0.0, 0.0, 0.0)",-14.625,-0.9375,22.375,"(0.0, 0.0, 0.0, 0.0, 0.0, 0.0, 0.0, 0.0, 0.0)",-0.32666015625,0.755859375,0.0927734375,"(0.0, 0.0, 0.0, 0.0, 0.0, 0.0, 0.0, 0.0, 0.0)"
2022/11/28/23:08:18.470020,9039,1669698498,469569206,RL_myo,0.7324721606832939,0.6195493692446193,0.2817576244761737,0.01599230884158525,"(0.0, 0.0, 0.0, 0.0, 0.0, 0.0, 0.0, 0.0, 0.0)",-3.6875,-2.5625,20.6875,"(0.0, 0.0, 0.0, 0.0, 0.0, 0.0, 0.0, 0.0, 0.0)",-0.302734375,0.80078125,0.10546875,"(0.0, 0.0, 0.0, 0.0, 0.0, 0.0, 0.0, 0.0, 0.0)"
2022/11/28/23:08:18.492880,9040,1669698498,492301225,RL_myo,0.7328663621303293,0.6201317764007783,0.27930344574901195,0.01824994105746385,"(0.0, 0.0, 0.0, 0.0, 0.0, 0.0, 0.0, 0.0, 0.0)",-1.625,-2.0,15.375,"(0.0, 0.0, 0.0, 0.0, 0.0, 0.0, 0.0, 0.0, 0.0)",-0.3232421875,0.9033203125,0.095703125,"(0.0, 0.0, 0.0, 0.0, 0.0, 0.0, 0.0, 0.0, 0.0)"
2022/11/28/23:08:18.515107,9041,1669698498,514698266,RL_myo,0.7343301063865977,0.6190321618296795,0.2777771020002831,0.01995893481742311,"(0.0, 0.0, 0.0, 0.0, 0.0, 0.0, 0.0, 0.0, 0.0)",-10.75,-1.5625,10.3125,"(0.0, 0.0, 0.0, 0.0, 0.0, 0.0, 0.0, 0.0, 0.0)",-0.37255859375,0.90185546875,0.1064453125,"(0.0, 0.0, 0.0, 0.0, 0.0, 0.0, 0.0, 0.0, 0.0)"
2022/11/28/23:08:18.530058,9042,1669698498,529623508,RL_myo,0.736081322969674,0.6172364489484488,0.27706054606180863,0.02099775894365767,"(0.0, 0.0, 0.0, 0.0, 0.0, 0.0, 0.0, 0.0, 0.0)",-13.5,-1.3125,6.5,"(0.0, 0.0, 0.0, 0.0, 0.0, 0.0, 0.0, 0.0, 0.0)",-0.4189453125,0.9150390625,0.1142578125,"(0.0, 0.0, 0.0, 0.0, 0.0, 0.0, 0.0, 0.0, 0.0)"
2022/11/28/23:08:18.552586,9043,1669698498,552126646,RL_myo,0.7375302583988025,0.6156360329562461,0.2767493330778921,0.021241457413124495,"(0.0, 0.0, 0.0, 0.0, 0.0, 0.0, 0.0, 0.0, 0.0)",-11.5625,-2.5625,1.625,"(0.0, 0.0, 0.0, 0.0, 0.0, 0.0, 0.0, 0.0, 0.0)",-0.42041015625,0.9248046875,0.1005859375,"(0.0, 0.0, 0.0, 0.0, 0.0, 0.0, 0.0, 0.0, 0.0)"
2022/11/28/23:08:18.575130,9044,1669698498,574763059,RL_myo,0.7383007986187861,0.6144571874748114,0.27735109366102545,0.02075250260667884,"(0.0, 0.0, 0.0, 0.0, 0.0, 0.0, 0.0, 0.0, 0.0)",-8.75,-1.25,-3.6875,"(0.0, 0.0, 0.0, 0.0, 0.0, 0.0, 0.0, 0.0, 0.0)",-0.43017578125,0.93505859375,0.06494140625,"(0.0, 0.0, 0.0, 0.0, 0.0, 0.0, 0.0, 0.0, 0.0)"
2022/11/28/23:08:18.590167,9045,1669698498,589687108,RL_myo,0.738265706822892,0.6139904708500595,0.2785205804243784,0.020142842765734133,"(0.0, 0.0, 0.0, 0.0, 0.0, 0.0, 0.0, 0.0, 0.0)",-3.0625,1.4375,-3.9375,"(0.0, 0.0, 0.0, 0.0, 0.0, 0.0, 0.0, 0.0, 0.0)",-0.4462890625,0.92578125,0.05615234375,"(0.0, 0.0, 0.0, 0.0, 0.0, 0.0, 0.0, 0.0, 0.0)"
2022/11/28/23:08:18.612677,9046,1669698498,612148284,RL_myo,0.737854692530672,0.6140040000137351,0.27962544229674124,0.019471843722475544,"(0.0, 0.0, 0.0, 0.0, 0.0, 0.0, 0.0, 0.0, 0.0)",0.125,1.4375,-2.25,"(0.0, 0.0, 0.0, 0.0, 0.0, 0.0, 0.0, 0.0, 0.0)",-0.45947265625,0.92626953125,0.0517578125,"(0.0, 0.0, 0.0, 0.0, 0.0, 0.0, 0.0, 0.0, 0.0)"
2022/11/28/23:08:18.635142,9047,1669698498,634650945,RL_myo,0.7375664160360389,0.6140893505245438,0.28021908441091153,0.019165496080380356,"(0.0, 0.0, 0.0, 0.0, 0.0, 0.0, 0.0, 0.0, 0.0)",-1.125,0.1875,-0.3125,"(0.0, 0.0, 0.0, 0.0, 0.0, 0.0, 0.0, 0.0, 0.0)",-0.44189453125,0.935546875,0.04345703125,"(0.0, 0.0, 0.0, 0.0, 0.0, 0.0, 0.0, 0.0, 0.0)"
2022/11/28/23:08:18.649904,9048,1669698498,649557352,RL_myo,0.7369384529486213,0.6145528322941042,0.28084600530246057,0.019288706297669538,"(0.0, 0.0, 0.0, 0.0, 0.0, 0.0, 0.0, 0.0, 0.0)",0.8125,2.5,1.625,"(0.0, 0.0, 0.0, 0.0, 0.0, 0.0, 0.0, 0.0, 0.0)",-0.4443359375,0.947265625,0.03857421875,"(0.0, 0.0, 0.0, 0.0, 0.0, 0.0, 0.0, 0.0, 0.0)"
2022/11/28/23:08:18.672480,9049,1669698498,672140598,RL_myo,0.736501392816811,0.6149109092687348,0.281208512904612,0.019288450201401647,"(0.0, 0.0, 0.0, 0.0, 0.0, 0.0, 0.0, 0.0, 0.0)",1.5,1.375,2.125,"(0.0, 0.0, 0.0, 0.0, 0.0, 0.0, 0.0, 0.0, 0.0)",-0.427734375,0.90234375,0.0625,"(0.0, 0.0, 0.0, 0.0, 0.0, 0.0, 0.0, 0.0, 0.0)"
2022/11/28/23:08:18.695082,9050,1669698498,694636106,RL_myo,0.7363142994922223,0.6150296677181158,0.28145115103694246,0.019105228860239208,"(0.0, 0.0, 0.0, 0.0, 0.0, 0.0, 0.0, 0.0, 0.0)",1.1875,0.125,1.0625,"(0.0, 0.0, 0.0, 0.0, 0.0, 0.0, 0.0, 0.0, 0.0)",-0.40771484375,0.86376953125,0.072265625,"(0.0, 0.0, 0.0, 0.0, 0.0, 0.0, 0.0, 0.0, 0.0)"
2022/11/28/23:08:18.710440,9051,1669698498,709843397,RL_myo,0.7359113870877243,0.6156093763097609,0.2812540160653756,0.018860132587717245,"(0.0, 0.0, 0.0, 0.0, 0.0, 0.0, 0.0, 0.0, 0.0)",3.5,-1.375,2.0625,"(0.0, 0.0, 0.0, 0.0, 0.0, 0.0, 0.0, 0.0, 0.0)",-0.39794921875,0.8857421875,0.0732421875,"(0.0, 0.0, 0.0, 0.0, 0.0, 0.0, 0.0, 0.0, 0.0)"
2022/11/28/23:08:18.732448,9052,1669698498,732045412,RL_myo,0.7354630475699081,0.6163142494242976,0.28090305792320663,0.018555960366939336,"(0.0, 0.0, 0.0, 0.0, 0.0, 0.0, 0.0, 0.0, 0.0)",5.0,-1.875,1.0,"(0.0, 0.0, 0.0, 0.0, 0.0, 0.0, 0.0, 0.0, 0.0)",-0.3798828125,0.892578125,0.08056640625,"(0.0, 0.0, 0.0, 0.0, 0.0, 0.0, 0.0, 0.0, 0.0)"
2022/11/28/23:08:18.755328,9053,1669698498,754784822,RL_myo,0.7351426057631723,0.6167897734338139,0.2807141185573588,0.01831142325879705,"(0.0, 0.0, 0.0, 0.0, 0.0, 0.0, 0.0, 0.0, 0.0)",4.0625,-1.25,-0.0625,"(0.0, 0.0, 0.0, 0.0, 0.0, 0.0, 0.0, 0.0, 0.0)",-0.37158203125,0.890625,0.083984375,"(0.0, 0.0, 0.0, 0.0, 0.0, 0.0, 0.0, 0.0, 0.0)"
2022/11/28/23:08:18.769963,9054,1669698498,769544124,RL_myo,0.7351426057631723,0.6167897734338139,0.2807141185573588,0.01831142325879705,"(0.0, 0.0, 0.0, 0.0, 0.0, 0.0, 0.0, 0.0, 0.0)",0.875,-0.6875,-0.6875,"(0.0, 0.0, 0.0, 0.0, 0.0, 0.0, 0.0, 0.0, 0.0)",-0.37744140625,0.87255859375,0.099609375,"(0.0, 0.0, 0.0, 0.0, 0.0, 0.0, 0.0, 0.0, 0.0)"
2022/11/28/23:08:18.792660,9055,1669698498,792187690,RL_myo,0.7356309501235749,0.6162404640265194,0.28065309564123775,0.018128310005534495,"(0.0, 0.0, 0.0, 0.0, 0.0, 0.0, 0.0, 0.0, 0.0)",-1.875,-1.0,-0.375,"(0.0, 0.0, 0.0, 0.0, 0.0, 0.0, 0.0, 0.0, 0.0)",-0.390625,0.875,0.10546875,"(0.0, 0.0, 0.0, 0.0, 0.0, 0.0, 0.0, 0.0, 0.0)"
2022/11/28/23:08:18.815282,9056,1669698498,814805984,RL_myo,0.7361013796712313,0.6157372071412424,0.28052420737719563,0.01812786979787361,"(0.0, 0.0, 0.0, 0.0, 0.0, 0.0, 0.0, 0.0, 0.0)",-3.25,-1.0625,-0.25,"(0.0, 0.0, 0.0, 0.0, 0.0, 0.0, 0.0, 0.0, 0.0)",-0.37890625,0.87939453125,0.0888671875,"(0.0, 0.0, 0.0, 0.0, 0.0, 0.0, 0.0, 0.0, 0.0)"
2022/11/28/23:08:18.830037,9057,1669698498,829658269,RL_myo,0.7361712460630778,0.615622517850278,0.28058860941480546,0.018189124560716124,"(0.0, 0.0, 0.0, 0.0, 0.0, 0.0, 0.0, 0.0, 0.0)",-1.125,0.3125,-0.125,"(0.0, 0.0, 0.0, 0.0, 0.0, 0.0, 0.0, 0.0, 0.0)",-0.38232421875,0.89794921875,0.08154296875,"(0.0, 0.0, 0.0, 0.0, 0.0, 0.0, 0.0, 0.0, 0.0)"
2022/11/28/23:08:18.852695,9058,1669698498,852202653,RL_myo,0.7363864406436724,0.6153441402626708,0.2806618745092511,0.017762637120963914,"(0.0, 0.0, 0.0, 0.0, 0.0, 0.0, 0.0, 0.0, 0.0)",-0.6875,-1.25,-2.1875,"(0.0, 0.0, 0.0, 0.0, 0.0, 0.0, 0.0, 0.0, 0.0)",-0.3837890625,0.8857421875,0.0888671875,"(0.0, 0.0, 0.0, 0.0, 0.0, 0.0, 0.0, 0.0, 0.0)"
2022/11/28/23:08:18.875330,9059,1669698498,874675750,RL_myo,0.7367230961919475,0.6149532058105941,0.28065060449797635,0.01751777370398417,"(0.0, 0.0, 0.0, 0.0, 0.0, 0.0, 0.0, 0.0, 0.0)",-3.1875,-1.75,-1.3125,"(0.0, 0.0, 0.0, 0.0, 0.0, 0.0, 0.0, 0.0, 0.0)",-0.384765625,0.88720703125,0.07568359375,"(0.0, 0.0, 0.0, 0.0, 0.0, 0.0, 0.0, 0.0, 0.0)"
2022/11/28/23:08:18.890496,9060,1669698498,889951467,RL_myo,0.7370998062066069,0.6144736459988334,0.28071563504009484,0.017456984479553624,"(0.0, 0.0, 0.0, 0.0, 0.0, 0.0, 0.0, 0.0, 0.0)",-3.25,-0.9375,0.125,"(0.0, 0.0, 0.0, 0.0, 0.0, 0.0, 0.0, 0.0, 0.0)",-0.40966796875,0.89697265625,0.08349609375,"(0.0, 0.0, 0.0, 0.0, 0.0, 0.0, 0.0, 0.0, 0.0)"
2022/11/28/23:08:18.912691,9061,1669698498,912245512,RL_myo,0.7374215034441598,0.6141211610091625,0.2806608784733256,0.017152176348630817,"(0.0, 0.0, 0.0, 0.0, 0.0, 0.0, 0.0, 0.0, 0.0)",-2.6875,-2.0625,0.8125,"(0.0, 0.0, 0.0, 0.0, 0.0, 0.0, 0.0, 0.0, 0.0)",-0.4169921875,0.88427734375,0.076171875,"(0.0, 0.0, 0.0, 0.0, 0.0, 0.0, 0.0, 0.0, 0.0)"
2022/11/28/23:08:18.935093,9062,1669698498,934665679,RL_myo,0.7373382816188667,0.6142858001831354,0.28053035946360194,0.016968546547189153,"(0.0, 0.0, 0.0, 0.0, 0.0, 0.0, 0.0, 0.0, 0.0)",-0.375,-2.0,1.5625,"(0.0, 0.0, 0.0, 0.0, 0.0, 0.0, 0.0, 0.0, 0.0)",-0.41064453125,0.8916015625,0.0595703125,"(0.0, 0.0, 0.0, 0.0, 0.0, 0.0, 0.0, 0.0, 0.0)"
2022/11/28/23:08:18.949888,9063,1669698498,949534416,RL_myo,0.7373295598915833,0.6142174967871691,0.28071015280971784,0.01684627140149644,"(0.0, 0.0, 0.0, 0.0, 0.0, 0.0, 0.0, 0.0, 0.0)",-1.1875,-0.4375,2.6875,"(0.0, 0.0, 0.0, 0.0, 0.0, 0.0, 0.0, 0.0, 0.0)",-0.4384765625,0.8779296875,0.0673828125,"(0.0, 0.0, 0.0, 0.0, 0.0, 0.0, 0.0, 0.0, 0.0)"
2022/11/28/23:08:18.972953,9064,1669698498,972402572,RL_myo,0.7369185648100606,0.6142920927895676,0.28163192727852393,0.01672456611927082,"(0.0, 0.0, 0.0, 0.0, 0.0, 0.0, 0.0, 0.0, 0.0)",1.125,2.75,6.3125,"(0.0, 0.0, 0.0, 0.0, 0.0, 0.0, 0.0, 0.0, 0.0)",-0.53173828125,0.87890625,0.068359375,"(0.0, 0.0, 0.0, 0.0, 0.0, 0.0, 0.0, 0.0, 0.0)"
2022/11/28/23:08:18.995187,9065,1669698498,994623899,RL_myo,0.7365688182630062,0.6140616815882857,0.2830421488593321,0.016785980361508804,"(0.0, 0.0, 0.0, 0.0, 0.0, 0.0, 0.0, 0.0, 0.0)",-1.0625,4.5,12.9375,"(0.0, 0.0, 0.0, 0.0, 0.0, 0.0, 0.0, 0.0, 0.0)",-0.6513671875,0.8603515625,0.060546875,"(0.0, 0.0, 0.0, 0.0, 0.0, 0.0, 0.0, 0.0, 0.0)"
2022/11/28/23:08:19.010325,9066,1669698499,9845733,RL_myo,0.7358807776475035,0.6135595203145906,0.28584353697107323,0.017823257056492285,"(0.0, 0.0, 0.0, 0.0, 0.0, 0.0, 0.0, 0.0, 0.0)",-3.5625,13.1875,18.25,"(0.0, 0.0, 0.0, 0.0, 0.0, 0.0, 0.0, 0.0, 0.0)",-0.7412109375,0.81982421875,0.0341796875,"(0.0, 0.0, 0.0, 0.0, 0.0, 0.0, 0.0, 0.0, 0.0)"
2022/11/28/23:08:19.032480,9067,1669698499,32045841,RL_myo,0.7350585900835659,0.6121927807471698,0.29071527564294813,0.01983675510895615,"(0.0, 0.0, 0.0, 0.0, 0.0, 0.0, 0.0, 0.0, 0.0)",-9.625,24.25,24.4375,"(0.0, 0.0, 0.0, 0.0, 0.0, 0.0, 0.0, 0.0, 0.0)",-0.88232421875,0.7578125,0.00732421875,"(0.0, 0.0, 0.0, 0.0, 0.0, 0.0, 0.0, 0.0, 0.0)"
2022/11/28/23:08:19.055082,9068,1669698499,54600000,RL_myo,0.7332345798808448,0.6115272834284678,0.2964555360427257,0.022705674162630005,"(0.0, 0.0, 0.0, 0.0, 0.0, 0.0, 0.0, 0.0, 0.0)",-4.0,32.0625,32.5625,"(0.0, 0.0, 0.0, 0.0, 0.0, 0.0, 0.0, 0.0, 0.0)",-0.95703125,0.685546875,-0.00244140625,"(0.0, 0.0, 0.0, 0.0, 0.0, 0.0, 0.0, 0.0, 0.0)"
2022/11/28/23:08:19.069966,9069,1669698499,69605588,RL_myo,0.7302789846969174,0.6126554805585891,0.3011088458299811,0.026063952395986606,"(0.0, 0.0, 0.0, 0.0, 0.0, 0.0, 0.0, 0.0, 0.0)",10.1875,32.625,45.25,"(0.0, 0.0, 0.0, 0.0, 0.0, 0.0, 0.0, 0.0, 0.0)",-0.9921875,0.654296875,0.048828125,"(0.0, 0.0, 0.0, 0.0, 0.0, 0.0, 0.0, 0.0, 0.0)"
2022/11/28/23:08:19.092833,9070,1669698499,92214345,RL_myo,0.7280707563605963,0.6143554797761068,0.3025082720089802,0.03112978586048827,"(0.0, 0.0, 0.0, 0.0, 0.0, 0.0, 0.0, 0.0, 0.0)",9.75,25.8125,61.6875,"(0.0, 0.0, 0.0, 0.0, 0.0, 0.0, 0.0, 0.0, 0.0)",-0.94921875,0.65185546875,0.09521484375,"(0.0, 0.0, 0.0, 0.0, 0.0, 0.0, 0.0, 0.0, 0.0)"
2022/11/28/23:08:19.115238,9071,1669698499,114765882,RL_myo,0.7271639821510953,0.6160720281919756,0.3002534733653352,0.03918738156140378,"(0.0, 0.0, 0.0, 0.0, 0.0, 0.0, 0.0, 0.0, 0.0)",0.875,19.625,81.8125,"(0.0, 0.0, 0.0, 0.0, 0.0, 0.0, 0.0, 0.0, 0.0)",-0.8388671875,0.634765625,0.11474609375,"(0.0, 0.0, 0.0, 0.0, 0.0, 0.0, 0.0, 0.0, 0.0)"
2022/11/28/23:08:19.129928,9072,1669698499,129520177,RL_myo,0.7258715680456442,0.6209461370440917,0.29121537597929437,0.05224908024277426,"(0.0, 0.0, 0.0, 0.0, 0.0, 0.0, 0.0, 0.0, 0.0)",2.0625,9.9375,102.125,"(0.0, 0.0, 0.0, 0.0, 0.0, 0.0, 0.0, 0.0, 0.0)",-0.70068359375,0.646484375,0.140625,"(0.0, 0.0, 0.0, 0.0, 0.0, 0.0, 0.0, 0.0, 0.0)"
2022/11/28/23:08:19.152579,9073,1669698499,152165651,RL_myo,0.7235444410266655,0.6284472384689175,0.27760081978988316,0.06689764698542479,"(0.0, 0.0, 0.0, 0.0, 0.0, 0.0, 0.0, 0.0, 0.0)",12.75,-2.5,127.25,"(0.0, 0.0, 0.0, 0.0, 0.0, 0.0, 0.0, 0.0, 0.0)",-0.521484375,0.70849609375,0.16650390625,"(0.0, 0.0, 0.0, 0.0, 0.0, 0.0, 0.0, 0.0, 0.0)"
2022/11/28/23:08:19.174944,9074,1669698499,174533367,RL_myo,0.7215991492081039,0.6363891667775072,0.2596584994697406,0.0829515516641696,"(0.0, 0.0, 0.0, 0.0, 0.0, 0.0, 0.0, 0.0, 0.0)",10.25,-15.8125,146.125,"(0.0, 0.0, 0.0, 0.0, 0.0, 0.0, 0.0, 0.0, 0.0)",-0.31787109375,0.76123046875,0.197265625,"(0.0, 0.0, 0.0, 0.0, 0.0, 0.0, 0.0, 0.0, 0.0)"
2022/11/28/23:08:19.192202,9075,1669698499,191814184,RL_myo,0.7193992095099649,0.6449322965961556,0.23859931359023018,0.09796671739890495,"(0.0, 0.0, 0.0, 0.0, 0.0, 0.0, 0.0, 0.0, 0.0)",13.8125,-32.375,152.25,"(0.0, 0.0, 0.0, 0.0, 0.0, 0.0, 0.0, 0.0, 0.0)",-0.13232421875,0.7861328125,0.236328125,"(0.0, 0.0, 0.0, 0.0, 0.0, 0.0, 0.0, 0.0, 0.0)"
2022/11/28/23:08:19.212774,9076,1669698499,212259292,RL_myo,0.7152635313441755,0.6554445980179003,0.21595855725343,0.1102377485584213,"(0.0, 0.0, 0.0, 0.0, 0.0, 0.0, 0.0, 0.0, 0.0)",32.125,-47.5625,147.6875,"(0.0, 0.0, 0.0, 0.0, 0.0, 0.0, 0.0, 0.0, 0.0)",0.06298828125,0.7880859375,0.2041015625,"(0.0, 0.0, 0.0, 0.0, 0.0, 0.0, 0.0, 0.0, 0.0)"
2022/11/28/23:08:19.235156,9077,1669698499,234695911,RL_myo,0.7091542147242256,0.6675864732689667,0.19227369395604324,0.12024735780743022,"(0.0, 0.0, 0.0, 0.0, 0.0, 0.0, 0.0, 0.0, 0.0)",48.0625,-58.9375,140.5625,"(0.0, 0.0, 0.0, 0.0, 0.0, 0.0, 0.0, 0.0, 0.0)",0.3828125,0.83740234375,0.17626953125,"(0.0, 0.0, 0.0, 0.0, 0.0, 0.0, 0.0, 0.0, 0.0)"
2022/11/28/23:08:19.251810,9078,1669698499,251369714,RL_myo,0.7008859464961895,0.6806827549704351,0.16992654141299238,0.12866564270782613,"(0.0, 0.0, 0.0, 0.0, 0.0, 0.0, 0.0, 0.0, 0.0)",62.0625,-58.0625,128.6875,"(0.0, 0.0, 0.0, 0.0, 0.0, 0.0, 0.0, 0.0, 0.0)",0.5927734375,0.87548828125,0.115234375,"(0.0, 0.0, 0.0, 0.0, 0.0, 0.0, 0.0, 0.0, 0.0)"
2022/11/28/23:08:19.272565,9079,1669698499,272113561,RL_myo,0.6910315240542381,0.6936562352576946,0.15101245389189868,0.13605770401173894,"(0.0, 0.0, 0.0, 0.0, 0.0, 0.0, 0.0, 0.0, 0.0)",69.4375,-47.1875,111.625,"(0.0, 0.0, 0.0, 0.0, 0.0, 0.0, 0.0, 0.0, 0.0)",0.65771484375,0.95556640625,-0.00048828125,"(0.0, 0.0, 0.0, 0.0, 0.0, 0.0, 0.0, 0.0, 0.0)"
2022/11/28/23:08:19.295513,9080,1669698499,294965982,RL_myo,0.6827779335249948,0.7037141780448476,0.12989017008235196,0.14740825223161652,"(0.0, 0.0, 0.0, 0.0, 0.0, 0.0, 0.0, 0.0, 0.0)",40.75,-39.8125,94.125,"(0.0, 0.0, 0.0, 0.0, 0.0, 0.0, 0.0, 0.0, 0.0)",0.7373046875,1.0478515625,-0.109375,"(0.0, 0.0, 0.0, 0.0, 0.0, 0.0, 0.0, 0.0, 0.0)"
2022/11/28/23:08:19.311693,9081,1669698499,311340332,RL_myo,0.6769791567618821,0.7099400029120414,0.11188376109859614,0.15863933174863687,"(0.0, 0.0, 0.0, 0.0, 0.0, 0.0, 0.0, 0.0, 0.0)",13.25,-27.125,79.0,"(0.0, 0.0, 0.0, 0.0, 0.0, 0.0, 0.0, 0.0, 0.0)",0.7431640625,1.02099609375,-0.19580078125,"(0.0, 0.0, 0.0, 0.0, 0.0, 0.0, 0.0, 0.0, 0.0)"
2022/11/28/23:08:19.332711,9082,1669698499,332191228,RL_myo,0.6726252052343884,0.7140691720541842,0.09802505259586458,0.16754593360874737,"(0.0, 0.0, 0.0, 0.0, 0.0, 0.0, 0.0, 0.0, 0.0)",3.125,-18.8125,59.5625,"(0.0, 0.0, 0.0, 0.0, 0.0, 0.0, 0.0, 0.0, 0.0)",0.64599609375,0.95068359375,-0.21142578125,"(0.0, 0.0, 0.0, 0.0, 0.0, 0.0, 0.0, 0.0, 0.0)"
2022/11/28/23:08:19.364143,9083,1669698499,363421201,RL_myo,0.6672828108900545,0.7187390320371745,0.08746947200927993,0.1746337469773551,"(0.0, 0.0, 0.0, 0.0, 0.0, 0.0, 0.0, 0.0, 0.0)",13.3125,-13.0,47.0625,"(0.0, 0.0, 0.0, 0.0, 0.0, 0.0, 0.0, 0.0, 0.0)",0.57275390625,0.94775390625,-0.22509765625,"(0.0, 0.0, 0.0, 0.0, 0.0, 0.0, 0.0, 0.0, 0.0)"
2022/11/28/23:08:19.371369,9084,1669698499,371091604,RL_myo,0.6619531811845031,0.7231739318279384,0.07995930542662047,0.1801220689419519,"(0.0, 0.0, 0.0, 0.0, 0.0, 0.0, 0.0, 0.0, 0.0)",18.125,-7.5625,36.3125,"(0.0, 0.0, 0.0, 0.0, 0.0, 0.0, 0.0, 0.0, 0.0)",0.4853515625,0.95947265625,-0.20703125,"(0.0, 0.0, 0.0, 0.0, 0.0, 0.0, 0.0, 0.0, 0.0)"
2022/11/28/23:08:19.392635,9085,1669698499,392177343,RL_myo,0.6599990559242187,0.7245767865417923,0.07477100189652898,0.1838451083366084,"(0.0, 0.0, 0.0, 0.0, 0.0, 0.0, 0.0, 0.0, 0.0)",-2.8125,-4.25,23.5625,"(0.0, 0.0, 0.0, 0.0, 0.0, 0.0, 0.0, 0.0, 0.0)",0.3828125,1.02880859375,-0.20068359375,"(0.0, 0.0, 0.0, 0.0, 0.0, 0.0, 0.0, 0.0, 0.0)"
2022/11/28/23:08:19.416852,9086,1669698499,416433095,RL_myo,0.6601432329618093,0.7241127297851081,0.06995137725143166,0.1870253227734613,"(0.0, 0.0, 0.0, 0.0, 0.0, 0.0, 0.0, 0.0, 0.0)",-15.25,-4.0,22.6875,"(0.0, 0.0, 0.0, 0.0, 0.0, 0.0, 0.0, 0.0, 0.0)",0.31640625,1.0107421875,-0.1513671875,"(0.0, 0.0, 0.0, 0.0, 0.0, 0.0, 0.0, 0.0, 0.0)"
2022/11/28/23:08:19.437644,9087,1669698499,437132835,RL_myo,0.6610463521917163,0.7229393347514947,0.06482282788805195,0.19019579256042363,"(0.0, 0.0, 0.0, 0.0, 0.0, 0.0, 0.0, 0.0, 0.0)",-20.1875,-4.8125,25.375,"(0.0, 0.0, 0.0, 0.0, 0.0, 0.0, 0.0, 0.0, 0.0)",0.27734375,0.96044921875,-0.12548828125,"(0.0, 0.0, 0.0, 0.0, 0.0, 0.0, 0.0, 0.0, 0.0)"
2022/11/28/23:08:19.452915,9088,1669698499,452303647,RL_myo,0.6616604799652651,0.7220278429436459,0.061221906033686435,0.19269945897143378,"(0.0, 0.0, 0.0, 0.0, 0.0, 0.0, 0.0, 0.0, 0.0)",-13.9375,-2.25,17.5625,"(0.0, 0.0, 0.0, 0.0, 0.0, 0.0, 0.0, 0.0, 0.0)",0.2646484375,0.91748046875,-0.095703125,"(0.0, 0.0, 0.0, 0.0, 0.0, 0.0, 0.0, 0.0, 0.0)"
2022/11/28/23:08:19.475439,9089,1669698499,474864959,RL_myo,0.6602116275140345,0.7235103939463619,0.059514269307154546,0.19264311172654333,"(0.0, 0.0, 0.0, 0.0, 0.0, 0.0, 0.0, 0.0, 0.0)",6.3125,-7.25,6.5625,"(0.0, 0.0, 0.0, 0.0, 0.0, 0.0, 0.0, 0.0, 0.0)",0.24609375,1.02978515625,-0.10546875,"(0.0, 0.0, 0.0, 0.0, 0.0, 0.0, 0.0, 0.0, 0.0)"
2022/11/28/23:08:19.497606,9090,1669698499,497147321,RL_myo,0.6585193352579576,0.7252929150866911,0.060730998107486125,0.19134842117283318,"(0.0, 0.0, 0.0, 0.0, 0.0, 0.0, 0.0, 0.0, 0.0)",16.125,-2.3125,-7.875,"(0.0, 0.0, 0.0, 0.0, 0.0, 0.0, 0.0, 0.0, 0.0)",0.232421875,1.1259765625,-0.060546875,"(0.0, 0.0, 0.0, 0.0, 0.0, 0.0, 0.0, 0.0, 0.0)"
2022/11/28/23:08:19.512622,9091,1669698499,512217044,RL_myo,0.658320644621704,0.725404037152001,0.06207808025779072,0.19117851265231126,"(0.0, 0.0, 0.0, 0.0, 0.0, 0.0, 0.0, 0.0, 0.0)",2.125,4.5625,-3.3125,"(0.0, 0.0, 0.0, 0.0, 0.0, 0.0, 0.0, 0.0, 0.0)",0.17724609375,1.087890625,-0.07568359375,"(0.0, 0.0, 0.0, 0.0, 0.0, 0.0, 0.0, 0.0, 0.0)"
2022/11/28/23:08:19.535161,9092,1669698499,534691810,RL_myo,0.6608516403306758,0.7229876863135546,0.06170878437002986,0.19171838942261502,"(0.0, 0.0, 0.0, 0.0, 0.0, 0.0, 0.0, 0.0, 0.0)",-20.4375,2.875,3.8125,"(0.0, 0.0, 0.0, 0.0, 0.0, 0.0, 0.0, 0.0, 0.0)",0.15478515625,1.041015625,-0.0576171875,"(0.0, 0.0, 0.0, 0.0, 0.0, 0.0, 0.0, 0.0, 0.0)"
2022/11/28/23:08:19.558193,9093,1669698499,557558536,RL_myo,0.6626260801093511,0.7212833814160098,0.06109881228716474,0.19220795194034143,"(0.0, 0.0, 0.0, 0.0, 0.0, 0.0, 0.0, 0.0, 0.0)",-15.375,1.25,1.9375,"(0.0, 0.0, 0.0, 0.0, 0.0, 0.0, 0.0, 0.0, 0.0)",0.18310546875,0.927734375,-0.0595703125,"(0.0, 0.0, 0.0, 0.0, 0.0, 0.0, 0.0, 0.0, 0.0)"
2022/11/28/23:08:19.572377,9094,1669698499,572044372,RL_myo,0.661964031358631,0.7216598195254121,0.061893179142245444,0.19282105809699543,"(0.0, 0.0, 0.0, 0.0, 0.0, 0.0, 0.0, 0.0, 0.0)",3.0625,5.4375,-2.0,"(0.0, 0.0, 0.0, 0.0, 0.0, 0.0, 0.0, 0.0, 0.0)",0.20703125,0.91064453125,-0.0673828125,"(0.0, 0.0, 0.0, 0.0, 0.0, 0.0, 0.0, 0.0, 0.0)"
2022/11/28/23:08:19.595787,9095,1669698499,595084428,RL_myo,0.660165991398636,0.7230941660595082,0.06378267945743109,0.19299601190851395,"(0.0, 0.0, 0.0, 0.0, 0.0, 0.0, 0.0, 0.0, 0.0)",17.75,6.4375,-1.8125,"(0.0, 0.0, 0.0, 0.0, 0.0, 0.0, 0.0, 0.0, 0.0)",0.1513671875,0.96728515625,-0.01416015625,"(0.0, 0.0, 0.0, 0.0, 0.0, 0.0, 0.0, 0.0, 0.0)"
2022/11/28/23:08:19.617704,9096,1669698499,617311000,RL_myo,0.6586781341783772,0.7244788040555239,0.06488507614045176,0.19251884303573363,"(0.0, 0.0, 0.0, 0.0, 0.0, 0.0, 0.0, 0.0, 0.0)",14.0,1.375,-0.875,"(0.0, 0.0, 0.0, 0.0, 0.0, 0.0, 0.0, 0.0, 0.0)",0.1455078125,0.974609375,-0.04248046875,"(0.0, 0.0, 0.0, 0.0, 0.0, 0.0, 0.0, 0.0, 0.0)"
2022/11/28/23:08:19.632597,9097,1669698499,632143974,RL_myo,0.6587171090305153,0.7245155748880853,0.06482186525114966,0.19226824438900325,"(0.0, 0.0, 0.0, 0.0, 0.0, 0.0, 0.0, 0.0, 0.0)",-0.75,-1.4375,-0.5,"(0.0, 0.0, 0.0, 0.0, 0.0, 0.0, 0.0, 0.0, 0.0)",0.18505859375,0.96923828125,-0.0634765625,"(0.0, 0.0, 0.0, 0.0, 0.0, 0.0, 0.0, 0.0, 0.0)"
2022/11/28/23:08:19.655062,9098,1669698499,654614448,RL_myo,0.6597175399692898,0.723565110917465,0.06415276966207657,0.19264142821457056,"(0.0, 0.0, 0.0, 0.0, 0.0, 0.0, 0.0, 0.0, 0.0)",-9.9375,-0.125,0.9375,"(0.0, 0.0, 0.0, 0.0, 0.0, 0.0, 0.0, 0.0, 0.0)",0.21630859375,0.947265625,-0.07373046875,"(0.0, 0.0, 0.0, 0.0, 0.0, 0.0, 0.0, 0.0, 0.0)"
2022/11/28/23:08:19.673387,9099,1669698499,672972440,RL_myo,0.6601165542527563,0.7230458346443044,0.0637227630734977,0.19336562587819991,"(0.0, 0.0, 0.0, 0.0, 0.0, 0.0, 0.0, 0.0, 0.0)",-3.3125,1.375,2.0,"(0.0, 0.0, 0.0, 0.0, 0.0, 0.0, 0.0, 0.0, 0.0)",0.205078125,0.8984375,-0.03662109375,"(0.0, 0.0, 0.0, 0.0, 0.0, 0.0, 0.0, 0.0, 0.0)"
2022/11/28/23:08:19.692947,9100,1669698499,692400932,RL_myo,0.6597833462836231,0.723265137396119,0.0635428312962579,0.19374154326063647,"(0.0, 0.0, 0.0, 0.0, 0.0, 0.0, 0.0, 0.0, 0.0)",3.75,0.3125,0.6875,"(0.0, 0.0, 0.0, 0.0, 0.0, 0.0, 0.0, 0.0, 0.0)",0.20458984375,0.89404296875,-0.02197265625,"(0.0, 0.0, 0.0, 0.0, 0.0, 0.0, 0.0, 0.0, 0.0)"
2022/11/28/23:08:19.715133,9101,1669698499,714685201,RL_myo,0.6592083441815126,0.7237863467874424,0.06378451108052599,0.19367297000814257,"(0.0, 0.0, 0.0, 0.0, 0.0, 0.0, 0.0, 0.0, 0.0)",5.25,-0.125,-0.875,"(0.0, 0.0, 0.0, 0.0, 0.0, 0.0, 0.0, 0.0, 0.0)",0.19873046875,0.95263671875,-0.0439453125,"(0.0, 0.0, 0.0, 0.0, 0.0, 0.0, 0.0, 0.0, 0.0)"
2022/11/28/23:08:19.733328,9102,1669698499,732871770,RL_myo,0.6594758725107022,0.7235678445707019,0.06384781216643784,0.19355775562119923,"(0.0, 0.0, 0.0, 0.0, 0.0, 0.0, 0.0, 0.0, 0.0)",-1.6875,0.125,-0.75,"(0.0, 0.0, 0.0, 0.0, 0.0, 0.0, 0.0, 0.0, 0.0)",0.19580078125,0.99853515625,-0.05615234375,"(0.0, 0.0, 0.0, 0.0, 0.0, 0.0, 0.0, 0.0, 0.0)"
2022/11/28/23:08:19.752659,9103,1669698499,752169132,RL_myo,0.6606813079672685,0.7224523245658342,0.06384632743290491,0.19361429313305392,"(0.0, 0.0, 0.0, 0.0, 0.0, 0.0, 0.0, 0.0, 0.0)",-7.6875,0.8125,0.0625,"(0.0, 0.0, 0.0, 0.0, 0.0, 0.0, 0.0, 0.0, 0.0)",0.17333984375,0.9814453125,-0.03076171875,"(0.0, 0.0, 0.0, 0.0, 0.0, 0.0, 0.0, 0.0, 0.0)"
2022/11/28/23:08:19.775074,9104,1669698499,774560213,RL_myo,0.6619557978045666,0.721284616197009,0.06329628052773956,0.1937952658395112,"(0.0, 0.0, 0.0, 0.0, 0.0, 0.0, 0.0, 0.0, 0.0)",-8.8125,-0.875,2.75,"(0.0, 0.0, 0.0, 0.0, 0.0, 0.0, 0.0, 0.0, 0.0)",0.16455078125,0.94677734375,-0.021484375,"(0.0, 0.0, 0.0, 0.0, 0.0, 0.0, 0.0, 0.0, 0.0)"
2022/11/28/23:08:19.792284,9105,1669698499,792056083,RL_myo,0.6621451552025197,0.7211693407741308,0.06280856975510626,0.1937360548131266,"(0.0, 0.0, 0.0, 0.0, 0.0, 0.0, 0.0, 0.0, 0.0)",-1.3125,-2.1875,1.875,"(0.0, 0.0, 0.0, 0.0, 0.0, 0.0, 0.0, 0.0, 0.0)",0.1787109375,0.9423828125,-0.03759765625,"(0.0, 0.0, 0.0, 0.0, 0.0, 0.0, 0.0, 0.0, 0.0)"
2022/11/28/23:08:19.820330,9106,1669698499,819800853,RL_myo,0.6621339802040654,0.7212792444756122,0.06299062201056374,0.19330552316613894,"(0.0, 0.0, 0.0, 0.0, 0.0, 0.0, 0.0, 0.0, 0.0)",1.6875,-1.5,-2.4375,"(0.0, 0.0, 0.0, 0.0, 0.0, 0.0, 0.0, 0.0, 0.0)",0.19873046875,0.98095703125,-0.0390625,"(0.0, 0.0, 0.0, 0.0, 0.0, 0.0, 0.0, 0.0, 0.0)"
2022/11/28/23:08:19.835042,9107,1669698499,834594964,RL_myo,0.6627995149550308,0.7207235171368453,0.06347835855541321,0.19293758787852033,"(0.0, 0.0, 0.0, 0.0, 0.0, 0.0, 0.0, 0.0, 0.0)",-2.875,0.5625,-4.0625,"(0.0, 0.0, 0.0, 0.0, 0.0, 0.0, 0.0, 0.0, 0.0)",0.1943359375,1.001953125,-0.02783203125,"(0.0, 0.0, 0.0, 0.0, 0.0, 0.0, 0.0, 0.0, 0.0)"
2022/11/28/23:08:19.853325,9108,1669698499,853001356,RL_myo,0.6641637780481697,0.7194649804111549,0.06384664202172462,0.19282174201398475,"(0.0, 0.0, 0.0, 0.0, 0.0, 0.0, 0.0, 0.0, 0.0)",-9.875,1.6875,-2.5,"(0.0, 0.0, 0.0, 0.0, 0.0, 0.0, 0.0, 0.0, 0.0)",0.17578125,1.00439453125,-0.04443359375,"(0.0, 0.0, 0.0, 0.0, 0.0, 0.0, 0.0, 0.0, 0.0)"
2022/11/28/23:08:19.872486,9109,1669698499,872040510,RL_myo,0.6664788196751418,0.7175069626597025,0.06396829407633928,0.19208799757465622,"(0.0, 0.0, 0.0, 0.0, 0.0, 0.0, 0.0, 0.0, 0.0)",-19.4375,-0.4375,-4.0,"(0.0, 0.0, 0.0, 0.0, 0.0, 0.0, 0.0, 0.0, 0.0)",0.16015625,1.02392578125,-0.0771484375,"(0.0, 0.0, 0.0, 0.0, 0.0, 0.0, 0.0, 0.0, 0.0)"
2022/11/28/23:08:19.895538,9110,1669698499,894945383,RL_myo,0.67038570623169,0.7142723786145166,0.06372418076171213,0.19062319589925958,"(0.0, 0.0, 0.0, 0.0, 0.0, 0.0, 0.0, 0.0, 0.0)",-32.625,-4.0625,-9.1875,"(0.0, 0.0, 0.0, 0.0, 0.0, 0.0, 0.0, 0.0, 0.0)",0.193359375,1.0859375,-0.09521484375,"(0.0, 0.0, 0.0, 0.0, 0.0, 0.0, 0.0, 0.0, 0.0)"
2022/11/28/23:08:19.917828,9111,1669698499,917271137,RL_myo,0.6757585483315428,0.7097570589828543,0.06323600903906408,0.18867037059821146,"(0.0, 0.0, 0.0, 0.0, 0.0, 0.0, 0.0, 0.0, 0.0)",-44.375,-6.1875,-17.625,"(0.0, 0.0, 0.0, 0.0, 0.0, 0.0, 0.0, 0.0, 0.0)",0.27587890625,1.12109375,-0.095703125,"(0.0, 0.0, 0.0, 0.0, 0.0, 0.0, 0.0, 0.0, 0.0)"
2022/11/28/23:08:19.932617,9112,1669698499,932154893,RL_myo,0.680999836785942,0.7054149963014369,0.06408979372817415,0.18579936391291632,"(0.0, 0.0, 0.0, 0.0, 0.0, 0.0, 0.0, 0.0, 0.0)",-43.5625,-4.1875,-35.3125,"(0.0, 0.0, 0.0, 0.0, 0.0, 0.0, 0.0, 0.0, 0.0)",0.39599609375,1.1591796875,-0.1083984375,"(0.0, 0.0, 0.0, 0.0, 0.0, 0.0, 0.0, 0.0, 0.0)"
2022/11/28/23:08:19.955077,9113,1669698499,954605340,RL_myo,0.6851590419004215,0.7023109074482182,0.0678749981820284,0.18085757159473934,"(0.0, 0.0, 0.0, 0.0, 0.0, 0.0, 0.0, 0.0, 0.0)",-38.875,-0.8125,-57.875,"(0.0, 0.0, 0.0, 0.0, 0.0, 0.0, 0.0, 0.0, 0.0)",0.47265625,1.32568359375,-0.22216796875,"(0.0, 0.0, 0.0, 0.0, 0.0, 0.0, 0.0, 0.0, 0.0)"
2022/11/28/23:08:19.979369,9114,1669698499,978903770,RL_myo,0.6873662410923559,0.7014053349074026,0.07520071121798974,0.17292501207838062,"(0.0, 0.0, 0.0, 0.0, 0.0, 0.0, 0.0, 0.0, 0.0)",-27.25,0.6875,-87.9375,"(0.0, 0.0, 0.0, 0.0, 0.0, 0.0, 0.0, 0.0, 0.0)",0.55517578125,1.49951171875,-0.35107421875,"(0.0, 0.0, 0.0, 0.0, 0.0, 0.0, 0.0, 0.0, 0.0)"
2022/11/28/23:08:19.992827,9115,1669698499,992249965,RL_myo,0.6932590853137557,0.6971654580431165,0.08874790544516646,0.15961194823872785,"(0.0, 0.0, 0.0, 0.0, 0.0, 0.0, 0.0, 0.0, 0.0)",-28.5625,2.4375,-123.25,"(0.0, 0.0, 0.0, 0.0, 0.0, 0.0, 0.0, 0.0, 0.0)",0.6591796875,1.54150390625,-0.4052734375,"(0.0, 0.0, 0.0, 0.0, 0.0, 0.0, 0.0, 0.0, 0.0)"
2022/11/28/23:08:20.014920,9116,1669698500,14551401,RL_myo,0.6992980496684212,0.6921567498681939,0.10626498249740084,0.14355843700969947,"(0.0, 0.0, 0.0, 0.0, 0.0, 0.0, 0.0, 0.0, 0.0)",-26.8125,7.75,-152.5625,"(0.0, 0.0, 0.0, 0.0, 0.0, 0.0, 0.0, 0.0, 0.0)",0.69970703125,1.4794921875,-0.37158203125,"(0.0, 0.0, 0.0, 0.0, 0.0, 0.0, 0.0, 0.0, 0.0)"
2022/11/28/23:08:20.046538,9117,1669698500,46092033,RL_myo,0.7052544611918433,0.6863321067717748,0.12696289417336282,0.12427714064277245,"(0.0, 0.0, 0.0, 0.0, 0.0, 0.0, 0.0, 0.0, 0.0)",-23.6875,7.9375,-178.75,"(0.0, 0.0, 0.0, 0.0, 0.0, 0.0, 0.0, 0.0, 0.0)",0.60693359375,1.3330078125,-0.2861328125,"(0.0, 0.0, 0.0, 0.0, 0.0, 0.0, 0.0, 0.0, 0.0)"
2022/11/28/23:08:20.052573,9118,1669698500,52234649,RL_myo,0.7100038124408533,0.6809493235548624,0.14978931875256654,0.09882188551768754,"(0.0, 0.0, 0.0, 0.0, 0.0, 0.0, 0.0, 0.0, 0.0)",-10.625,-7.3125,-210.25,"(0.0, 0.0, 0.0, 0.0, 0.0, 0.0, 0.0, 0.0, 0.0)",0.4990234375,1.263671875,-0.236328125,"(0.0, 0.0, 0.0, 0.0, 0.0, 0.0, 0.0, 0.0, 0.0)"
2022/11/28/23:08:20.075102,9119,1669698500,74663162,RL_myo,0.7130593251292977,0.6760085623871744,0.1733511798807743,0.06714306262987738,"(0.0, 0.0, 0.0, 0.0, 0.0, 0.0, 0.0, 0.0, 0.0)",5.4375,-27.6875,-238.25,"(0.0, 0.0, 0.0, 0.0, 0.0, 0.0, 0.0, 0.0, 0.0)",0.4521484375,1.22900390625,-0.1552734375,"(0.0, 0.0, 0.0, 0.0, 0.0, 0.0, 0.0, 0.0, 0.0)"
2022/11/28/23:08:20.097648,9120,1669698500,97278118,RL_myo,0.7143384139136564,0.6711228625976803,0.19605699269338328,0.029603873429729418,"(0.0, 0.0, 0.0, 0.0, 0.0, 0.0, 0.0, 0.0, 0.0)",19.6875,-52.0625,-258.1875,"(0.0, 0.0, 0.0, 0.0, 0.0, 0.0, 0.0, 0.0, 0.0)",0.3955078125,1.08984375,-0.078125,"(0.0, 0.0, 0.0, 0.0, 0.0, 0.0, 0.0, 0.0, 0.0)"
2022/11/28/23:08:20.112740,9121,1669698500,112205982,RL_myo,0.7141372765022234,0.6655515267504482,0.21649956579088772,-0.013306147545084163,"(0.0, 0.0, 0.0, 0.0, 0.0, 0.0, 0.0, 0.0, 0.0)",29.0625,-80.25,-270.75,"(0.0, 0.0, 0.0, 0.0, 0.0, 0.0, 0.0, 0.0, 0.0)",0.30126953125,0.93310546875,-0.01025390625,"(0.0, 0.0, 0.0, 0.0, 0.0, 0.0, 0.0, 0.0, 0.0)"
2022/11/28/23:08:20.135130,9122,1669698500,134636878,RL_myo,0.7117534393546269,0.6598719177482952,0.23291751347030754,-0.06103708424274306,"(0.0, 0.0, 0.0, 0.0, 0.0, 0.0, 0.0, 0.0, 0.0)",44.875,-111.8125,-275.8125,"(0.0, 0.0, 0.0, 0.0, 0.0, 0.0, 0.0, 0.0, 0.0)",0.27783203125,0.82568359375,0.05859375,"(0.0, 0.0, 0.0, 0.0, 0.0, 0.0, 0.0, 0.0, 0.0)"
2022/11/28/23:08:20.157771,9123,1669698500,157292604,RL_myo,0.7068901506804806,0.6541526418135489,0.244155133643202,-0.11304382687680252,"(0.0, 0.0, 0.0, 0.0, 0.0, 0.0, 0.0, 0.0, 0.0)",62.3125,-145.5625,-274.125,"(0.0, 0.0, 0.0, 0.0, 0.0, 0.0, 0.0, 0.0, 0.0)",0.25537109375,0.6865234375,0.11767578125,"(0.0, 0.0, 0.0, 0.0, 0.0, 0.0, 0.0, 0.0, 0.0)"
2022/11/28/23:08:20.174229,9124,1669698500,173929214,RL_myo,0.6995471496802046,0.6483369534860076,0.24915377933815508,-0.16797432649157343,"(0.0, 0.0, 0.0, 0.0, 0.0, 0.0, 0.0, 0.0, 0.0)",79.6875,-177.8125,-261.25,"(0.0, 0.0, 0.0, 0.0, 0.0, 0.0, 0.0, 0.0, 0.0)",0.13818359375,0.50537109375,0.13671875,"(0.0, 0.0, 0.0, 0.0, 0.0, 0.0, 0.0, 0.0, 0.0)"
2022/11/28/23:08:20.195092,9125,1669698500,194558143,RL_myo,0.6901133160098876,0.6423193370221163,0.246843998756765,-0.22413728077023767,"(0.0, 0.0, 0.0, 0.0, 0.0, 0.0, 0.0, 0.0, 0.0)",95.3125,-209.0625,-238.625,"(0.0, 0.0, 0.0, 0.0, 0.0, 0.0, 0.0, 0.0, 0.0)",0.001953125,0.392578125,0.1552734375,"(0.0, 0.0, 0.0, 0.0, 0.0, 0.0, 0.0, 0.0, 0.0)"
2022/11/28/23:08:20.217720,9126,1669698500,217164993,RL_myo,0.6779575715873956,0.636390172086989,0.23634210112419157,-0.281999097932274,"(0.0, 0.0, 0.0, 0.0, 0.0, 0.0, 0.0, 0.0, 0.0)",119.1875,-243.0,-217.8125,"(0.0, 0.0, 0.0, 0.0, 0.0, 0.0, 0.0, 0.0, 0.0)",-0.033203125,0.31591796875,0.19775390625,"(0.0, 0.0, 0.0, 0.0, 0.0, 0.0, 0.0, 0.0, 0.0)"
2022/11/28/23:08:20.234123,9127,1669698500,233750820,RL_myo,0.6619632224171397,0.6312608249182166,0.21625963089201714,-0.34138868630512326,"(0.0, 0.0, 0.0, 0.0, 0.0, 0.0, 0.0, 0.0, 0.0)",154.25,-278.875,-192.875,"(0.0, 0.0, 0.0, 0.0, 0.0, 0.0, 0.0, 0.0, 0.0)",-0.046875,0.2275390625,0.24853515625,"(0.0, 0.0, 0.0, 0.0, 0.0, 0.0, 0.0, 0.0, 0.0)"
2022/11/28/23:08:20.255639,9128,1669698500,254983425,RL_myo,0.6436825463796176,0.6254939062486555,0.18628097207951763,-0.399661797240066,"(0.0, 0.0, 0.0, 0.0, 0.0, 0.0, 0.0, 0.0, 0.0)",178.0,-310.625,-157.875,"(0.0, 0.0, 0.0, 0.0, 0.0, 0.0, 0.0, 0.0, 0.0)",-0.0546875,0.232421875,0.2607421875,"(0.0, 0.0, 0.0, 0.0, 0.0, 0.0, 0.0, 0.0, 0.0)"
2022/11/28/23:08:20.277684,9129,1669698500,277174234,RL_myo,0.6249565355974374,0.617693147792369,0.1462443460583514,-0.4544195143591094,"(0.0, 0.0, 0.0, 0.0, 0.0, 0.0, 0.0, 0.0, 0.0)",192.375,-337.8125,-112.4375,"(0.0, 0.0, 0.0, 0.0, 0.0, 0.0, 0.0, 0.0, 0.0)",-0.05712890625,0.26806640625,0.38427734375,"(0.0, 0.0, 0.0, 0.0, 0.0, 0.0, 0.0, 0.0, 0.0)"
2022/11/28/23:08:20.294571,9130,1669698500,294208765,RL_myo,0.6075691043369834,0.606531463712739,0.09570708816560076,-0.5038050419125438,"(0.0, 0.0, 0.0, 0.0, 0.0, 0.0, 0.0, 0.0, 0.0)",199.875,-365.125,-55.0,"(0.0, 0.0, 0.0, 0.0, 0.0, 0.0, 0.0, 0.0, 0.0)",-0.0341796875,0.24169921875,0.50732421875,"(0.0, 0.0, 0.0, 0.0, 0.0, 0.0, 0.0, 0.0, 0.0)"
2022/11/28/23:08:20.323072,9131,1669698500,322501897,RL_myo,0.593701512009904,0.5893679243309996,0.03576735746250681,-0.5467034484499548,"(0.0, 0.0, 0.0, 0.0, 0.0, 0.0, 0.0, 0.0, 0.0)",191.8125,-393.3125,7.9375,"(0.0, 0.0, 0.0, 0.0, 0.0, 0.0, 0.0, 0.0, 0.0)",-0.01513671875,0.21142578125,0.62353515625,"(0.0, 0.0, 0.0, 0.0, 0.0, 0.0, 0.0, 0.0, 0.0)"
2022/11/28/23:08:20.338251,9132,1669698500,337449789,RL_myo,0.5832133682807021,0.5652073040585349,-0.03009149037806239,-0.5826640307281614,"(0.0, 0.0, 0.0, 0.0, 0.0, 0.0, 0.0, 0.0, 0.0)",173.3125,-414.0625,61.125,"(0.0, 0.0, 0.0, 0.0, 0.0, 0.0, 0.0, 0.0, 0.0)",-0.03271484375,0.203125,0.59716796875,"(0.0, 0.0, 0.0, 0.0, 0.0, 0.0, 0.0, 0.0, 0.0)"
2022/11/28/23:08:20.354114,9133,1669698500,353784799,RL_myo,0.5759969899811409,0.5340652392004857,-0.09857318414957536,-0.6109706336453556,"(0.0, 0.0, 0.0, 0.0, 0.0, 0.0, 0.0, 0.0, 0.0)",149.4375,-421.3125,107.1875,"(0.0, 0.0, 0.0, 0.0, 0.0, 0.0, 0.0, 0.0, 0.0)",-0.0009765625,0.26318359375,0.62353515625,"(0.0, 0.0, 0.0, 0.0, 0.0, 0.0, 0.0, 0.0, 0.0)"
2022/11/28/23:08:20.375070,9134,1669698500,374666690,RL_myo,0.5717774310815202,0.4983521268980159,-0.16882326797304495,-0.6294556625473653,"(0.0, 0.0, 0.0, 0.0, 0.0, 0.0, 0.0, 0.0, 0.0)",140.5625,-408.75,156.125,"(0.0, 0.0, 0.0, 0.0, 0.0, 0.0, 0.0, 0.0, 0.0)",0.20556640625,0.21484375,0.84521484375,"(0.0, 0.0, 0.0, 0.0, 0.0, 0.0, 0.0, 0.0, 0.0)"
2022/11/28/23:08:20.397602,9135,1669698500,397203683,RL_myo,0.5712937233535864,0.4606971179351357,-0.23950390709823427,-0.6356253028850692,"(0.0, 0.0, 0.0, 0.0, 0.0, 0.0, 0.0, 0.0, 0.0)",141.6875,-378.125,213.8125,"(0.0, 0.0, 0.0, 0.0, 0.0, 0.0, 0.0, 0.0, 0.0)",0.259765625,0.115234375,1.05322265625,"(0.0, 0.0, 0.0, 0.0, 0.0, 0.0, 0.0, 0.0, 0.0)"
2022/11/28/23:08:20.414350,9136,1669698500,414058208,RL_myo,0.574702615590427,0.41961347516824404,-0.3110327664665268,-0.6300000422816895,"(0.0, 0.0, 0.0, 0.0, 0.0, 0.0, 0.0, 0.0, 0.0)",139.6875,-360.25,274.1875,"(0.0, 0.0, 0.0, 0.0, 0.0, 0.0, 0.0, 0.0, 0.0)",0.21484375,0.19482421875,1.0615234375,"(0.0, 0.0, 0.0, 0.0, 0.0, 0.0, 0.0, 0.0, 0.0)"
2022/11/28/23:08:20.434696,9137,1669698500,434396743,RL_myo,0.5791530334793084,0.37731310496038406,-0.3848813393529896,-0.6116232003895193,"(0.0, 0.0, 0.0, 0.0, 0.0, 0.0, 0.0, 0.0, 0.0)",163.625,-340.9375,325.3125,"(0.0, 0.0, 0.0, 0.0, 0.0, 0.0, 0.0, 0.0, 0.0)",0.38720703125,0.3662109375,1.05126953125,"(0.0, 0.0, 0.0, 0.0, 0.0, 0.0, 0.0, 0.0, 0.0)"
2022/11/28/23:08:20.457687,9138,1669698500,457176685,RL_myo,0.5833050221889853,0.3353836033199199,-0.4567198368776998,-0.5819622670892514,"(0.0, 0.0, 0.0, 0.0, 0.0, 0.0, 0.0, 0.0, 0.0)",184.0625,-307.875,347.5625,"(0.0, 0.0, 0.0, 0.0, 0.0, 0.0, 0.0, 0.0, 0.0)",1.0380859375,0.4560546875,1.0322265625,"(0.0, 0.0, 0.0, 0.0, 0.0, 0.0, 0.0, 0.0, 0.0)"
2022/11/28/23:08:20.476073,9139,1669698500,475706577,RL_myo,0.5881163469824658,0.2972929354661261,-0.5162191845971043,-0.5470409732258035,"(0.0, 0.0, 0.0, 0.0, 0.0, 0.0, 0.0, 0.0, 0.0)",166.25,-244.1875,331.6875,"(0.0, 0.0, 0.0, 0.0, 0.0, 0.0, 0.0, 0.0, 0.0)",1.26513671875,0.6689453125,0.9794921875,"(0.0, 0.0, 0.0, 0.0, 0.0, 0.0, 0.0, 0.0, 0.0)"
2022/11/28/23:08:20.495080,9140,1669698500,494622230,RL_myo,0.6001416678953233,0.2567065854945316,-0.5640709137281174,-0.505722959440725,"(0.0, 0.0, 0.0, 0.0, 0.0, 0.0, 0.0, 0.0, 0.0)",127.875,-185.9375,372.3125,"(0.0, 0.0, 0.0, 0.0, 0.0, 0.0, 0.0, 0.0, 0.0)",0.8369140625,0.71923828125,0.98291015625,"(0.0, 0.0, 0.0, 0.0, 0.0, 0.0, 0.0, 0.0, 0.0)"
2022/11/28/23:08:20.517699,9141,1669698500,517288923,RL_myo,0.6075467642443269,0.21350196718170134,-0.6077298705626645,-0.46472383594095884,"(0.0, 0.0, 0.0, 0.0, 0.0, 0.0, 0.0, 0.0, 0.0)",113.5625,-196.3125,353.4375,"(0.0, 0.0, 0.0, 0.0, 0.0, 0.0, 0.0, 0.0, 0.0)",1.11083984375,0.19580078125,0.95947265625,"(0.0, 0.0, 0.0, 0.0, 0.0, 0.0, 0.0, 0.0, 0.0)"
2022/11/28/23:08:20.536628,9142,1669698500,536346435,RL_myo,0.6050459712950226,0.184022354832492,-0.6492357506975845,-0.422549506635271,"(0.0, 0.0, 0.0, 0.0, 0.0, 0.0, 0.0, 0.0, 0.0)",167.9375,-185.5625,280.625,"(0.0, 0.0, 0.0, 0.0, 0.0, 0.0, 0.0, 0.0, 0.0)",1.23193359375,0.2646484375,0.70068359375,"(0.0, 0.0, 0.0, 0.0, 0.0, 0.0, 0.0, 0.0, 0.0)"
2022/11/28/23:08:20.554487,9143,1669698500,554233074,RL_myo,0.5987474630732271,0.16857701253906762,-0.6871252741364313,-0.37542259381890114,"(0.0, 0.0, 0.0, 0.0, 0.0, 0.0, 0.0, 0.0, 0.0)",224.625,-145.75,238.8125,"(0.0, 0.0, 0.0, 0.0, 0.0, 0.0, 0.0, 0.0, 0.0)",1.27001953125,0.693359375,0.306640625,"(0.0, 0.0, 0.0, 0.0, 0.0, 0.0, 0.0, 0.0, 0.0)"
2022/11/28/23:08:20.577627,9144,1669698500,577155590,RL_myo,0.5952697429698343,0.1572249418527933,-0.7154467268627496,-0.3302578262288294,"(0.0, 0.0, 0.0, 0.0, 0.0, 0.0, 0.0, 0.0, 0.0)",205.8125,-94.5,216.875,"(0.0, 0.0, 0.0, 0.0, 0.0, 0.0, 0.0, 0.0, 0.0)",1.2978515625,0.94287109375,0.078125,"(0.0, 0.0, 0.0, 0.0, 0.0, 0.0, 0.0, 0.0, 0.0)"
2022/11/28/23:08:20.600093,9145,1669698500,599596977,RL_myo,0.5961208475983354,0.14623789811053667,-0.7328984476257614,-0.2934523431199751,"(0.0, 0.0, 0.0, 0.0, 0.0, 0.0, 0.0, 0.0, 0.0)",147.25,-45.8125,187.8125,"(0.0, 0.0, 0.0, 0.0, 0.0, 0.0, 0.0, 0.0, 0.0)",1.34912109375,1.0068359375,-0.0517578125,"(0.0, 0.0, 0.0, 0.0, 0.0, 0.0, 0.0, 0.0, 0.0)"
2022/11/28/23:08:20.615273,9146,1669698500,614804267,RL_myo,0.6017230319301345,0.13573709534563538,-0.740694869206219,-0.2662253641626176,"(0.0, 0.0, 0.0, 0.0, 0.0, 0.0, 0.0, 0.0, 0.0)",87.6875,1.25,156.25,"(0.0, 0.0, 0.0, 0.0, 0.0, 0.0, 0.0, 0.0, 0.0)",1.29248046875,1.10986328125,-0.154296875,"(0.0, 0.0, 0.0, 0.0, 0.0, 0.0, 0.0, 0.0, 0.0)"
2022/11/28/23:08:20.637817,9147,1669698500,637285470,RL_myo,0.6115009714978759,0.12469273228567326,-0.7422971170133912,-0.2439534267967871,"(0.0, 0.0, 0.0, 0.0, 0.0, 0.0, 0.0, 0.0, 0.0)",53.0625,35.8125,144.875,"(0.0, 0.0, 0.0, 0.0, 0.0, 0.0, 0.0, 0.0, 0.0)",1.2099609375,1.076171875,-0.12353515625,"(0.0, 0.0, 0.0, 0.0, 0.0, 0.0, 0.0, 0.0, 0.0)"
2022/11/28/23:08:20.655548,9148,1669698500,655193328,RL_myo,0.6226241588197859,0.11706628140538666,-0.7409111522314853,-0.2229020123526966,"(0.0, 0.0, 0.0, 0.0, 0.0, 0.0, 0.0, 0.0, 0.0)",53.625,56.1875,125.375,"(0.0, 0.0, 0.0, 0.0, 0.0, 0.0, 0.0, 0.0, 0.0)",1.23095703125,0.97021484375,-0.169921875,"(0.0, 0.0, 0.0, 0.0, 0.0, 0.0, 0.0, 0.0, 0.0)"
2022/11/28/23:08:20.674962,9149,1669698500,674561738,RL_myo,0.6314690843560831,0.11926257402201686,-0.738707744825215,-0.2033078987038578,"(0.0, 0.0, 0.0, 0.0, 0.0, 0.0, 0.0, 0.0, 0.0)",85.3125,63.3125,99.9375,"(0.0, 0.0, 0.0, 0.0, 0.0, 0.0, 0.0, 0.0, 0.0)",1.1162109375,1.04248046875,-0.18603515625,"(0.0, 0.0, 0.0, 0.0, 0.0, 0.0, 0.0, 0.0, 0.0)"
2022/11/28/23:08:20.697815,9150,1669698500,697288513,RL_myo,0.6391659934915158,0.12347524874267919,-0.7371893496362231,-0.181031926728021,"(0.0, 0.0, 0.0, 0.0, 0.0, 0.0, 0.0, 0.0, 0.0)",103.0625,59.375,80.0625,"(0.0, 0.0, 0.0, 0.0, 0.0, 0.0, 0.0, 0.0, 0.0)",0.9912109375,1.0693359375,-0.22705078125,"(0.0, 0.0, 0.0, 0.0, 0.0, 0.0, 0.0, 0.0, 0.0)"
2022/11/28/23:08:20.715591,9151,1669698500,715272665,RL_myo,0.6449461900335929,0.13140618407706306,-0.7342999538463287,-0.16607349134867097,"(0.0, 0.0, 0.0, 0.0, 0.0, 0.0, 0.0, 0.0, 0.0)",85.5625,64.0625,66.9375,"(0.0, 0.0, 0.0, 0.0, 0.0, 0.0, 0.0, 0.0, 0.0)",0.91015625,1.05859375,-0.2861328125,"(0.0, 0.0, 0.0, 0.0, 0.0, 0.0, 0.0, 0.0, 0.0)"
2022/11/28/23:08:20.735196,9152,1669698500,734742164,RL_myo,0.6508799573655775,0.13562033620276753,-0.7302868238821394,-0.156982675388622,"(0.0, 0.0, 0.0, 0.0, 0.0, 0.0, 0.0, 0.0, 0.0)",43.25,64.375,52.3125,"(0.0, 0.0, 0.0, 0.0, 0.0, 0.0, 0.0, 0.0, 0.0)",0.93505859375,0.94384765625,-0.32177734375,"(0.0, 0.0, 0.0, 0.0, 0.0, 0.0, 0.0, 0.0, 0.0)"
2022/11/28/23:08:20.757925,9153,1669698500,757370471,RL_myo,0.656539730729042,0.13702070237860922,-0.7260571383055391,-0.15172982900366258,"(0.0, 0.0, 0.0, 0.0, 0.0, 0.0, 0.0, 0.0, 0.0)",14.4375,60.1875,35.375,"(0.0, 0.0, 0.0, 0.0, 0.0, 0.0, 0.0, 0.0, 0.0)",0.94970703125,0.724609375,-0.3388671875,"(0.0, 0.0, 0.0, 0.0, 0.0, 0.0, 0.0, 0.0, 0.0)"
2022/11/28/23:08:20.775595,9154,1669698500,775268316,RL_myo,0.6601647764670131,0.1406268162888312,-0.7235811228750407,-0.1443500089075893,"(0.0, 0.0, 0.0, 0.0, 0.0, 0.0, 0.0, 0.0, 0.0)",34.625,45.9375,22.5,"(0.0, 0.0, 0.0, 0.0, 0.0, 0.0, 0.0, 0.0, 0.0)",0.9384765625,0.53271484375,-0.28271484375,"(0.0, 0.0, 0.0, 0.0, 0.0, 0.0, 0.0, 0.0, 0.0)"
2022/11/28/23:08:20.795149,9155,1669698500,794527292,RL_myo,0.6615712156822818,0.14721927965916265,-0.722912582206933,-0.13434064449826574,"(0.0, 0.0, 0.0, 0.0, 0.0, 0.0, 0.0, 0.0, 0.0)",61.1875,30.625,13.1875,"(0.0, 0.0, 0.0, 0.0, 0.0, 0.0, 0.0, 0.0, 0.0)",0.9619140625,0.4375,-0.23095703125,"(0.0, 0.0, 0.0, 0.0, 0.0, 0.0, 0.0, 0.0, 0.0)"
2022/11/28/23:08:20.817496,9156,1669698500,817139148,RL_myo,0.6618565111126565,0.15527139102458487,-0.7227687942268608,-0.12426594030112216,"(0.0, 0.0, 0.0, 0.0, 0.0, 0.0, 0.0, 0.0, 0.0)",67.6875,26.75,8.6875,"(0.0, 0.0, 0.0, 0.0, 0.0, 0.0, 0.0, 0.0, 0.0)",0.9765625,0.46484375,-0.2607421875,"(0.0, 0.0, 0.0, 0.0, 0.0, 0.0, 0.0, 0.0, 0.0)"
2022/11/28/23:08:20.835810,9157,1669698500,835434913,RL_myo,0.6617886750608324,0.16192247117369624,-0.7223951635174778,-0.1181612906868737,"(0.0, 0.0, 0.0, 0.0, 0.0, 0.0, 0.0, 0.0, 0.0)",47.0625,20.75,3.3125,"(0.0, 0.0, 0.0, 0.0, 0.0, 0.0, 0.0, 0.0, 0.0)",0.94287109375,0.52099609375,-0.24462890625,"(0.0, 0.0, 0.0, 0.0, 0.0, 0.0, 0.0, 0.0, 0.0)"
2022/11/28/23:08:20.856820,9158,1669698500,856425285,RL_myo,0.6621054951515332,0.16509913019772285,-0.7218585629754041,-0.11523369974613705,"(0.0, 0.0, 0.0, 0.0, 0.0, 0.0, 0.0, 0.0, 0.0)",21.625,13.75,1.6875,"(0.0, 0.0, 0.0, 0.0, 0.0, 0.0, 0.0, 0.0, 0.0)",0.9326171875,0.45166015625,-0.18603515625,"(0.0, 0.0, 0.0, 0.0, 0.0, 0.0, 0.0, 0.0, 0.0)"
2022/11/28/23:08:20.878985,9159,1669698500,878502368,RL_myo,0.6623797191283393,0.16675464362869727,-0.7215251253055749,-0.11334676911364965,"(0.0, 0.0, 0.0, 0.0, 0.0, 0.0, 0.0, 0.0, 0.0)",12.0,8.625,-1.125,"(0.0, 0.0, 0.0, 0.0, 0.0, 0.0, 0.0, 0.0, 0.0)",0.912109375,0.36376953125,-0.14892578125,"(0.0, 0.0, 0.0, 0.0, 0.0, 0.0, 0.0, 0.0, 0.0)"
2022/11/28/23:08:20.895967,9160,1669698500,895629405,RL_myo,0.6628586404630258,0.16778990816140496,-0.7210266224484092,-0.11218546787946974,"(0.0, 0.0, 0.0, 0.0, 0.0, 0.0, 0.0, 0.0, 0.0)",6.4375,7.8125,-4.9375,"(0.0, 0.0, 0.0, 0.0, 0.0, 0.0, 0.0, 0.0, 0.0)",0.95654296875,0.3251953125,-0.1328125,"(0.0, 0.0, 0.0, 0.0, 0.0, 0.0, 0.0, 0.0, 0.0)"
2022/11/28/23:08:20.915046,9161,1669698500,914604425,RL_myo,0.6635067743630841,0.16930988796644242,-0.7203299559408628,-0.11053360025494853,"(0.0, 0.0, 0.0, 0.0, 0.0, 0.0, 0.0, 0.0, 0.0)",9.9375,10.0,-6.3125,"(0.0, 0.0, 0.0, 0.0, 0.0, 0.0, 0.0, 0.0, 0.0)",0.93798828125,0.2998046875,-0.1298828125,"(0.0, 0.0, 0.0, 0.0, 0.0, 0.0, 0.0, 0.0, 0.0)"
2022/11/28/23:08:20.937663,9162,1669698500,937255859,RL_myo,0.6643486008296465,0.17003906310623748,-0.7194007310959157,-0.11040942755175291,"(0.0, 0.0, 0.0, 0.0, 0.0, 0.0, 0.0, 0.0, 0.0)",2.25,6.0625,-6.625,"(0.0, 0.0, 0.0, 0.0, 0.0, 0.0, 0.0, 0.0, 0.0)",0.91552734375,0.3271484375,-0.07080078125,"(0.0, 0.0, 0.0, 0.0, 0.0, 0.0, 0.0, 0.0, 0.0)"
2022/11/28/23:08:20.955977,9163,1669698500,955641031,RL_myo,0.6652892244140994,0.16955719866260258,-0.7185123623672274,-0.11126809689054158,"(0.0, 0.0, 0.0, 0.0, 0.0, 0.0, 0.0, 0.0, 0.0)",-5.875,2.5625,-6.5625,"(0.0, 0.0, 0.0, 0.0, 0.0, 0.0, 0.0, 0.0, 0.0)",0.9189453125,0.30712890625,-0.033203125,"(0.0, 0.0, 0.0, 0.0, 0.0, 0.0, 0.0, 0.0, 0.0)"
2022/11/28/23:08:20.974859,9164,1669698500,974499702,RL_myo,0.6665564839654362,0.16839385946897156,-0.7174591584116567,-0.11224222818537105,"(0.0, 0.0, 0.0, 0.0, 0.0, 0.0, 0.0, 0.0, 0.0)",-9.0625,2.6875,-6.5625,"(0.0, 0.0, 0.0, 0.0, 0.0, 0.0, 0.0, 0.0, 0.0)",0.94775390625,0.2802734375,-0.01611328125,"(0.0, 0.0, 0.0, 0.0, 0.0, 0.0, 0.0, 0.0, 0.0)"
2022/11/28/23:08:20.997694,9165,1669698500,997188806,RL_myo,0.6680961340327508,0.16687144440394122,-0.71613118404954,-0.11383147176786773,"(0.0, 0.0, 0.0, 0.0, 0.0, 0.0, 0.0, 0.0, 0.0)",-13.5625,4.4375,-6.75,"(0.0, 0.0, 0.0, 0.0, 0.0, 0.0, 0.0, 0.0, 0.0)",0.94384765625,0.296875,-0.01611328125,"(0.0, 0.0, 0.0, 0.0, 0.0, 0.0, 0.0, 0.0, 0.0)"
2022/11/28/23:08:21.016564,9166,1669698501,16138076,RL_myo,0.6695608809293733,0.16510138403955832,-0.7148493197306125,-0.11584562917082501,"(0.0, 0.0, 0.0, 0.0, 0.0, 0.0, 0.0, 0.0, 0.0)",-16.25,4.5,-5.875,"(0.0, 0.0, 0.0, 0.0, 0.0, 0.0, 0.0, 0.0, 0.0)",0.91259765625,0.302734375,-0.0263671875,"(0.0, 0.0, 0.0, 0.0, 0.0, 0.0, 0.0, 0.0, 0.0)"
2022/11/28/23:08:21.035446,9167,1669698501,34909963,RL_myo,0.6704106819685693,0.16314710059195064,-0.714050852908803,-0.1185914015900337,"(0.0, 0.0, 0.0, 0.0, 0.0, 0.0, 0.0, 0.0, 0.0)",-20.0,1.3125,-6.0625,"(0.0, 0.0, 0.0, 0.0, 0.0, 0.0, 0.0, 0.0, 0.0)",0.90478515625,0.3330078125,-0.05126953125,"(0.0, 0.0, 0.0, 0.0, 0.0, 0.0, 0.0, 0.0, 0.0)"
2022/11/28/23:08:21.057611,9168,1669698501,57190418,RL_myo,0.6709594751557688,0.15985107481424166,-0.7133789089075435,-0.12390136764906856,"(0.0, 0.0, 0.0, 0.0, 0.0, 0.0, 0.0, 0.0, 0.0)",-36.25,-0.5,-8.25,"(0.0, 0.0, 0.0, 0.0, 0.0, 0.0, 0.0, 0.0, 0.0)",0.97900390625,0.39990234375,-0.1064453125,"(0.0, 0.0, 0.0, 0.0, 0.0, 0.0, 0.0, 0.0, 0.0)"
2022/11/28/23:08:21.080294,9169,1669698501,79757213,RL_myo,0.6714324074743032,0.15545298989519593,-0.7123250275095531,-0.13268739695019865,"(0.0, 0.0, 0.0, 0.0, 0.0, 0.0, 0.0, 0.0, 0.0)",-56.6875,1.875,-12.125,"(0.0, 0.0, 0.0, 0.0, 0.0, 0.0, 0.0, 0.0, 0.0)",0.9814453125,0.49462890625,-0.1728515625,"(0.0, 0.0, 0.0, 0.0, 0.0, 0.0, 0.0, 0.0, 0.0)"
2022/11/28/23:08:21.097013,9170,1669698501,96662998,RL_myo,0.6717408818473155,0.1498996552623121,-0.710619579079438,-0.14599347532062318,"(0.0, 0.0, 0.0, 0.0, 0.0, 0.0, 0.0, 0.0, 0.0)",-80.8125,0.6875,-22.25,"(0.0, 0.0, 0.0, 0.0, 0.0, 0.0, 0.0, 0.0, 0.0)",0.93408203125,0.53857421875,-0.19580078125,"(0.0, 0.0, 0.0, 0.0, 0.0, 0.0, 0.0, 0.0, 0.0)"
2022/11/28/23:08:21.117640,9171,1669698501,117186546,RL_myo,0.6713737033498045,0.14172088537984057,-0.7083602910070755,-0.1655241348622427,"(0.0, 0.0, 0.0, 0.0, 0.0, 0.0, 0.0, 0.0, 0.0)",-114.0625,-12.5,-40.75,"(0.0, 0.0, 0.0, 0.0, 0.0, 0.0, 0.0, 0.0, 0.0)",0.98828125,0.69384765625,-0.29443359375,"(0.0, 0.0, 0.0, 0.0, 0.0, 0.0, 0.0, 0.0, 0.0)"
2022/11/28/23:08:21.140001,9172,1669698501,139664173,RL_myo,0.670217368438166,0.1303081760873768,-0.7040303565189187,-0.19537071271929418,"(0.0, 0.0, 0.0, 0.0, 0.0, 0.0, 0.0, 0.0, 0.0)",-170.6875,-18.25,-66.5625,"(0.0, 0.0, 0.0, 0.0, 0.0, 0.0, 0.0, 0.0, 0.0)",1.14208984375,0.994140625,-0.35107421875,"(0.0, 0.0, 0.0, 0.0, 0.0, 0.0, 0.0, 0.0, 0.0)"
2022/11/28/23:08:21.156810,9173,1669698501,156402349,RL_myo,0.6710252298828933,0.11273272690501217,-0.6941577168872244,-0.23486493401758896,"(0.0, 0.0, 0.0, 0.0, 0.0, 0.0, 0.0, 0.0, 0.0)",-241.5,-2.4375,-80.125,"(0.0, 0.0, 0.0, 0.0, 0.0, 0.0, 0.0, 0.0, 0.0)",1.091796875,1.07861328125,-0.3232421875,"(0.0, 0.0, 0.0, 0.0, 0.0, 0.0, 0.0, 0.0, 0.0)"
2022/11/28/23:08:21.177423,9174,1669698501,177099704,RL_myo,0.6727833919072168,0.09423728178397377,-0.6774220145857026,-0.28210150026264685,"(0.0, 0.0, 0.0, 0.0, 0.0, 0.0, 0.0, 0.0, 0.0)",-286.4375,21.625,-110.1875,"(0.0, 0.0, 0.0, 0.0, 0.0, 0.0, 0.0, 0.0, 0.0)",0.982421875,1.05078125,-0.26611328125,"(0.0, 0.0, 0.0, 0.0, 0.0, 0.0, 0.0, 0.0, 0.0)"
2022/11/28/23:08:21.199963,9175,1669698501,199551582,RL_myo,0.6741963075282993,0.08087181852933158,-0.6543598237380859,-0.3327646449976723,"(0.0, 0.0, 0.0, 0.0, 0.0, 0.0, 0.0, 0.0, 0.0)",-289.5625,48.4375,-147.9375,"(0.0, 0.0, 0.0, 0.0, 0.0, 0.0, 0.0, 0.0, 0.0)",0.9619140625,1.0517578125,-0.04296875,"(0.0, 0.0, 0.0, 0.0, 0.0, 0.0, 0.0, 0.0, 0.0)"
2022/11/28/23:08:21.216922,9176,1669698501,216514110,RL_myo,0.6751902512768089,0.07959212508271186,-0.6269710957435708,-0.38038199656093585,"(0.0, 0.0, 0.0, 0.0, 0.0, 0.0, 0.0, 0.0, 0.0)",-237.6875,86.5,-188.3125,"(0.0, 0.0, 0.0, 0.0, 0.0, 0.0, 0.0, 0.0, 0.0)",0.98046875,0.87744140625,0.1689453125,"(0.0, 0.0, 0.0, 0.0, 0.0, 0.0, 0.0, 0.0, 0.0)"
2022/11/28/23:08:21.237576,9177,1669698501,237129449,RL_myo,0.675052593998906,0.08966114471829954,-0.596927158165398,-0.4241967023772511,"(0.0, 0.0, 0.0, 0.0, 0.0, 0.0, 0.0, 0.0, 0.0)",-181.75,116.625,-224.5625,"(0.0, 0.0, 0.0, 0.0, 0.0, 0.0, 0.0, 0.0, 0.0)",1.16455078125,0.64111328125,0.51904296875,"(0.0, 0.0, 0.0, 0.0, 0.0, 0.0, 0.0, 0.0, 0.0)"
2022/11/28/23:08:21.260693,9178,1669698501,259923934,RL_myo,0.6750541531771692,0.11267178723011342,-0.566166575485662,-0.4594152451143357,"(0.0, 0.0, 0.0, 0.0, 0.0, 0.0, 0.0, 0.0, 0.0)",-101.25,155.3125,-240.0625,"(0.0, 0.0, 0.0, 0.0, 0.0, 0.0, 0.0, 0.0, 0.0)",1.2822265625,0.54541015625,0.72900390625,"(0.0, 0.0, 0.0, 0.0, 0.0, 0.0, 0.0, 0.0, 0.0)"
2022/11/28/23:08:21.278517,9179,1669698501,278198957,RL_myo,0.6731656884562738,0.1473408261794764,-0.5365671926030559,-0.48706702274739916,"(0.0, 0.0, 0.0, 0.0, 0.0, 0.0, 0.0, 0.0, 0.0)",-25.4375,181.75,-254.6875,"(0.0, 0.0, 0.0, 0.0, 0.0, 0.0, 0.0, 0.0, 0.0)",1.2802734375,0.54150390625,0.85107421875,"(0.0, 0.0, 0.0, 0.0, 0.0, 0.0, 0.0, 0.0, 0.0)"
2022/11/28/23:08:21.297308,9180,1669698501,297032117,RL_myo,0.6728739547843297,0.19080224806384383,-0.5061813957752581,-0.5045944289007668,"(0.0, 0.0, 0.0, 0.0, 0.0, 0.0, 0.0, 0.0, 0.0)",39.6875,223.6875,-242.9375,"(0.0, 0.0, 0.0, 0.0, 0.0, 0.0, 0.0, 0.0, 0.0)",1.33984375,0.38818359375,1.0380859375,"(0.0, 0.0, 0.0, 0.0, 0.0, 0.0, 0.0, 0.0, 0.0)"
2022/11/28/23:08:21.320019,9181,1669698501,319574117,RL_myo,0.6745047256451666,0.24048037454003768,-0.4725988680364243,-0.5136758457180094,"(0.0, 0.0, 0.0, 0.0, 0.0, 0.0, 0.0, 0.0, 0.0)",80.4375,269.125,-228.0,"(0.0, 0.0, 0.0, 0.0, 0.0, 0.0, 0.0, 0.0, 0.0)",1.21728515625,0.19189453125,1.1640625,"(0.0, 0.0, 0.0, 0.0, 0.0, 0.0, 0.0, 0.0, 0.0)"
2022/11/28/23:08:21.336678,9182,1669698501,336383581,RL_myo,0.6771307472175653,0.2949858393097614,-0.43616155756415376,-0.5140431902890152,"(0.0, 0.0, 0.0, 0.0, 0.0, 0.0, 0.0, 0.0, 0.0)",115.5,310.0625,-206.8125,"(0.0, 0.0, 0.0, 0.0, 0.0, 0.0, 0.0, 0.0, 0.0)",0.9951171875,0.07470703125,1.20361328125,"(0.0, 0.0, 0.0, 0.0, 0.0, 0.0, 0.0, 0.0, 0.0)"
2022/11/28/23:08:21.357538,9183,1669698501,357190847,RL_myo,0.6784783199762102,0.35303333957740196,-0.39398862499518145,-0.5097132466823796,"(0.0, 0.0, 0.0, 0.0, 0.0, 0.0, 0.0, 0.0, 0.0)",126.375,346.9375,-206.75,"(0.0, 0.0, 0.0, 0.0, 0.0, 0.0, 0.0, 0.0, 0.0)",0.63037109375,0.09033203125,1.166015625,"(0.0, 0.0, 0.0, 0.0, 0.0, 0.0, 0.0, 0.0, 0.0)"
2022/11/28/23:08:21.380243,9184,1669698501,379763126,RL_myo,0.6809883894534375,0.4084587525519767,-0.3431492986920522,-0.5016620572660934,"(0.0, 0.0, 0.0, 0.0, 0.0, 0.0, 0.0, 0.0, 0.0)",94.0,383.3125,-194.8125,"(0.0, 0.0, 0.0, 0.0, 0.0, 0.0, 0.0, 0.0, 0.0)",0.26318359375,0.18310546875,0.99658203125,"(0.0, 0.0, 0.0, 0.0, 0.0, 0.0, 0.0, 0.0, 0.0)"
2022/11/28/23:08:21.397957,9185,1669698501,397589921,RL_myo,0.6871490918957145,0.45496618679966744,-0.2845522354252817,-0.48975700065475336,"(0.0, 0.0, 0.0, 0.0, 0.0, 0.0, 0.0, 0.0, 0.0)",30.6875,404.3125,-167.0,"(0.0, 0.0, 0.0, 0.0, 0.0, 0.0, 0.0, 0.0, 0.0)",0.087890625,0.41015625,0.7509765625,"(0.0, 0.0, 0.0, 0.0, 0.0, 0.0, 0.0, 0.0, 0.0)"
2022/11/28/23:08:21.417617,9186,1669698501,417127370,RL_myo,0.6986334594422554,0.4937310897630966,-0.22309149871234,-0.4673019190538098,"(0.0, 0.0, 0.0, 0.0, 0.0, 0.0, 0.0, 0.0, 0.0)",-9.125,430.875,-105.5,"(0.0, 0.0, 0.0, 0.0, 0.0, 0.0, 0.0, 0.0, 0.0)",0.05078125,0.482421875,0.4921875,"(0.0, 0.0, 0.0, 0.0, 0.0, 0.0, 0.0, 0.0, 0.0)"
2022/11/28/23:08:21.440487,9187,1669698501,439977169,RL_myo,0.7150441660387816,0.5241826118600987,-0.16119775010741974,-0.43354321053123906,"(0.0, 0.0, 0.0, 0.0, 0.0, 0.0, 0.0, 0.0, 0.0)",-44.5,447.625,-35.25,"(0.0, 0.0, 0.0, 0.0, 0.0, 0.0, 0.0, 0.0, 0.0)",-0.1103515625,0.38818359375,0.357421875,"(0.0, 0.0, 0.0, 0.0, 0.0, 0.0, 0.0, 0.0, 0.0)"
2022/11/28/23:08:21.458177,9188,1669698501,457926988,RL_myo,0.7349493576636196,0.5452456284369332,-0.10284774251832896,-0.38984482579499524,"(0.0, 0.0, 0.0, 0.0, 0.0, 0.0, 0.0, 0.0, 0.0)",-77.125,441.875,35.75,"(0.0, 0.0, 0.0, 0.0, 0.0, 0.0, 0.0, 0.0, 0.0)",-0.24462890625,0.3759765625,0.23583984375,"(0.0, 0.0, 0.0, 0.0, 0.0, 0.0, 0.0, 0.0, 0.0)"
2022/11/28/23:08:21.477633,9189,1669698501,477145671,RL_myo,0.7561890606937876,0.558917041631529,-0.05139326734233345,-0.3363756488403796,"(0.0, 0.0, 0.0, 0.0, 0.0, 0.0, 0.0, 0.0, 0.0)",-92.625,426.6875,107.5,"(0.0, 0.0, 0.0, 0.0, 0.0, 0.0, 0.0, 0.0, 0.0)",-0.32373046875,0.37353515625,0.11376953125,"(0.0, 0.0, 0.0, 0.0, 0.0, 0.0, 0.0, 0.0, 0.0)"
2022/11/28/23:08:21.500256,9190,1669698501,499663829,RL_myo,0.7755417040441679,0.568075447783651,-0.008972503580551919,-0.27521781390958233,"(0.0, 0.0, 0.0, 0.0, 0.0, 0.0, 0.0, 0.0, 0.0)",-87.4375,401.9375,167.9375,"(0.0, 0.0, 0.0, 0.0, 0.0, 0.0, 0.0, 0.0, 0.0)",-0.40283203125,0.41748046875,0.060546875,"(0.0, 0.0, 0.0, 0.0, 0.0, 0.0, 0.0, 0.0, 0.0)"
2022/11/28/23:08:21.518139,9191,1669698501,517690181,RL_myo,0.788187906216201,0.578032949110774,0.022889372324872252,-0.2100328804530278,"(0.0, 0.0, 0.0, 0.0, 0.0, 0.0, 0.0, 0.0, 0.0)",-44.0625,369.5,210.5625,"(0.0, 0.0, 0.0, 0.0, 0.0, 0.0, 0.0, 0.0, 0.0)",-0.42138671875,0.42236328125,0.142578125,"(0.0, 0.0, 0.0, 0.0, 0.0, 0.0, 0.0, 0.0, 0.0)"
2022/11/28/23:08:21.537379,9192,1669698501,536998510,RL_myo,0.7938603727149657,0.5884674652733342,0.04547331828945482,-0.1463691506820304,"(0.0, 0.0, 0.0, 0.0, 0.0, 0.0, 0.0, 0.0, 0.0)",-6.0625,325.0625,222.875,"(0.0, 0.0, 0.0, 0.0, 0.0, 0.0, 0.0, 0.0, 0.0)",-0.22802734375,0.48876953125,0.2333984375,"(0.0, 0.0, 0.0, 0.0, 0.0, 0.0, 0.0, 0.0, 0.0)"
2022/11/28/23:08:21.559929,9193,1669698501,559506654,RL_myo,0.793092572332974,0.6002820878016623,0.05932630293271131,-0.0845338781500053,"(0.0, 0.0, 0.0, 0.0, 0.0, 0.0, 0.0, 0.0, 0.0)",32.0625,283.5625,235.375,"(0.0, 0.0, 0.0, 0.0, 0.0, 0.0, 0.0, 0.0, 0.0)",0.02392578125,0.455078125,0.34130859375,"(0.0, 0.0, 0.0, 0.0, 0.0, 0.0, 0.0, 0.0, 0.0)"
2022/11/28/23:08:21.578185,9194,1669698501,577880859,RL_myo,0.7871063672828519,0.6128991883588302,0.0650682735574657,-0.024171703873129845,"(0.0, 0.0, 0.0, 0.0, 0.0, 0.0, 0.0, 0.0, 0.0)",56.4375,244.0,251.5625,"(0.0, 0.0, 0.0, 0.0, 0.0, 0.0, 0.0, 0.0, 0.0)",0.205078125,0.65966796875,0.283203125,"(0.0, 0.0, 0.0, 0.0, 0.0, 0.0, 0.0, 0.0, 0.0)"
2022/11/28/23:08:21.597943,9195,1669698501,597413063,RL_myo,0.7779403814707417,0.6240003546312587,0.06781418311604503,0.028871384890989473,"(0.0, 0.0, 0.0, 0.0, 0.0, 0.0, 0.0, 0.0, 0.0)",62.75,205.6875,225.875,"(0.0, 0.0, 0.0, 0.0, 0.0, 0.0, 0.0, 0.0, 0.0)",0.34033203125,0.91748046875,0.26025390625,"(0.0, 0.0, 0.0, 0.0, 0.0, 0.0, 0.0, 0.0, 0.0)"
2022/11/28/23:08:21.620114,9196,1669698501,619724273,RL_myo,0.7677327145108565,0.6329613809411339,0.06872849710122629,0.07226868611709764,"(0.0, 0.0, 0.0, 0.0, 0.0, 0.0, 0.0, 0.0, 0.0)",59.6875,163.4375,188.0625,"(0.0, 0.0, 0.0, 0.0, 0.0, 0.0, 0.0, 0.0, 0.0)",0.419921875,1.0693359375,0.224609375,"(0.0, 0.0, 0.0, 0.0, 0.0, 0.0, 0.0, 0.0, 0.0)"
2022/11/28/23:08:21.638600,9197,1669698501,638309001,RL_myo,0.760787232031806,0.6368174897134011,0.0682413451068324,0.10492564600952138,"(0.0, 0.0, 0.0, 0.0, 0.0, 0.0, 0.0, 0.0, 0.0)",29.375,118.625,142.625,"(0.0, 0.0, 0.0, 0.0, 0.0, 0.0, 0.0, 0.0, 0.0)",0.45947265625,0.96533203125,0.19775390625,"(0.0, 0.0, 0.0, 0.0, 0.0, 0.0, 0.0, 0.0, 0.0)"
2022/11/28/23:08:21.657671,9198,1669698501,657204151,RL_myo,0.7572396085913677,0.6361398678654873,0.06695887881869503,0.13202557418854816,"(0.0, 0.0, 0.0, 0.0, 0.0, 0.0, 0.0, 0.0, 0.0)",-1.4375,96.3125,118.875,"(0.0, 0.0, 0.0, 0.0, 0.0, 0.0, 0.0, 0.0, 0.0)",0.38525390625,0.83447265625,0.15673828125,"(0.0, 0.0, 0.0, 0.0, 0.0, 0.0, 0.0, 0.0, 0.0)"
2022/11/28/23:08:21.679943,9199,1669698501,679544210,RL_myo,0.7532790914314227,0.6362067879417971,0.06457898701356819,0.15375658628277722,"(0.0, 0.0, 0.0, 0.0, 0.0, 0.0, 0.0, 0.0, 0.0)",4.5,71.0,102.0,"(0.0, 0.0, 0.0, 0.0, 0.0, 0.0, 0.0, 0.0, 0.0)",0.31591796875,0.83203125,0.1591796875,"(0.0, 0.0, 0.0, 0.0, 0.0, 0.0, 0.0, 0.0, 0.0)"
2022/11/28/23:08:21.698496,9200,1669698501,698188304,RL_myo,0.7469895519056275,0.6396227745071965,0.0604891849925214,0.17096892751165735,"(0.0, 0.0, 0.0, 0.0, 0.0, 0.0, 0.0, 0.0, 0.0)",29.8125,47.8125,74.625,"(0.0, 0.0, 0.0, 0.0, 0.0, 0.0, 0.0, 0.0, 0.0)",0.42626953125,0.88134765625,0.189453125,"(0.0, 0.0, 0.0, 0.0, 0.0, 0.0, 0.0, 0.0, 0.0)"
2022/11/28/23:08:21.717601,9201,1669698501,717206716,RL_myo,0.7403785740810287,0.6440011817913384,0.059205871134261984,0.18329405259400902,"(0.0, 0.0, 0.0, 0.0, 0.0, 0.0, 0.0, 0.0, 0.0)",39.9375,41.1875,44.0625,"(0.0, 0.0, 0.0, 0.0, 0.0, 0.0, 0.0, 0.0, 0.0)",0.45654296875,0.92578125,0.19580078125,"(0.0, 0.0, 0.0, 0.0, 0.0, 0.0, 0.0, 0.0, 0.0)"
2022/11/28/23:08:21.740138,9202,1669698501,739698886,RL_myo,0.7375222389855983,0.6445613542736008,0.059695170878748254,0.19245283617657796,"(0.0, 0.0, 0.0, 0.0, 0.0, 0.0, 0.0, 0.0, 0.0)",12.4375,37.375,30.625,"(0.0, 0.0, 0.0, 0.0, 0.0, 0.0, 0.0, 0.0, 0.0)",0.29638671875,0.9609375,0.189453125,"(0.0, 0.0, 0.0, 0.0, 0.0, 0.0, 0.0, 0.0, 0.0)"
2022/11/28/23:08:21.764087,9203,1669698501,763803482,RL_myo,0.7380821693344835,0.6417017735869521,0.05847524960489871,0.20008545741634443,"(0.0, 0.0, 0.0, 0.0, 0.0, 0.0, 0.0, 0.0, 0.0)",-16.875,26.125,31.9375,"(0.0, 0.0, 0.0, 0.0, 0.0, 0.0, 0.0, 0.0, 0.0)",0.2197265625,0.99658203125,0.1953125,"(0.0, 0.0, 0.0, 0.0, 0.0, 0.0, 0.0, 0.0, 0.0)"
2022/11/28/23:08:21.777254,9204,1669698501,776838302,RL_myo,0.7370105682455779,0.6412449714275811,0.05554282543300007,0.20624088696495302,"(0.0, 0.0, 0.0, 0.0, 0.0, 0.0, 0.0, 0.0, 0.0)",-1.8125,12.5,29.625,"(0.0, 0.0, 0.0, 0.0, 0.0, 0.0, 0.0, 0.0, 0.0)",0.302734375,0.97802734375,0.197265625,"(0.0, 0.0, 0.0, 0.0, 0.0, 0.0, 0.0, 0.0, 0.0)"
2022/11/28/23:08:21.799872,9205,1669698501,799475193,RL_myo,0.7363069145420343,0.6409038052467347,0.05316449660665771,0.21039956349385663,"(0.0, 0.0, 0.0, 0.0, 0.0, 0.0, 0.0, 0.0, 0.0)",-2.6875,7.375,16.5,"(0.0, 0.0, 0.0, 0.0, 0.0, 0.0, 0.0, 0.0, 0.0)",0.3486328125,0.9765625,0.18115234375,"(0.0, 0.0, 0.0, 0.0, 0.0, 0.0, 0.0, 0.0, 0.0)"
2022/11/28/23:08:21.822730,9206,1669698501,822256326,RL_myo,0.7361081532974438,0.6402798116161016,0.0517595119399861,0.2133248752715229,"(0.0, 0.0, 0.0, 0.0, 0.0, 0.0, 0.0, 0.0, 0.0)",-4.8125,6.3125,15.0625,"(0.0, 0.0, 0.0, 0.0, 0.0, 0.0, 0.0, 0.0, 0.0)",0.24072265625,1.01708984375,0.177734375,"(0.0, 0.0, 0.0, 0.0, 0.0, 0.0, 0.0, 0.0, 0.0)"
2022/11/28/23:08:21.837333,9207,1669698501,837000131,RL_myo,0.7366691807188898,0.6390081740778902,0.0503564565492654,0.2155256340308559,"(0.0, 0.0, 0.0, 0.0, 0.0, 0.0, 0.0, 0.0, 0.0)",-12.5,3.5625,16.125,"(0.0, 0.0, 0.0, 0.0, 0.0, 0.0, 0.0, 0.0, 0.0)",0.17138671875,0.99853515625,0.14453125,"(0.0, 0.0, 0.0, 0.0, 0.0, 0.0, 0.0, 0.0, 0.0)"
2022/11/28/23:08:21.860282,9208,1669698501,859697818,RL_myo,0.7372173016381357,0.6377253160718035,0.0480369280004316,0.21796679782660894,"(0.0, 0.0, 0.0, 0.0, 0.0, 0.0, 0.0, 0.0, 0.0)",-12.25,1.0625,16.625,"(0.0, 0.0, 0.0, 0.0, 0.0, 0.0, 0.0, 0.0, 0.0)",0.22216796875,0.9521484375,0.16015625,"(0.0, 0.0, 0.0, 0.0, 0.0, 0.0, 0.0, 0.0, 0.0)"
2022/11/28/23:08:21.878113,9209,1669698501,877809047,RL_myo,0.736935833503448,0.6373185651958503,0.046268314569337665,0.22047645412196257,"(0.0, 0.0, 0.0, 0.0, 0.0, 0.0, 0.0, 0.0, 0.0)",-2.0625,1.6875,16.4375,"(0.0, 0.0, 0.0, 0.0, 0.0, 0.0, 0.0, 0.0, 0.0)",0.20947265625,0.90625,0.197265625,"(0.0, 0.0, 0.0, 0.0, 0.0, 0.0, 0.0, 0.0, 0.0)"
2022/11/28/23:08:21.897513,9210,1669698501,897095203,RL_myo,0.7365565732260756,0.6371241825916779,0.04535191297812001,0.2224868409222711,"(0.0, 0.0, 0.0, 0.0, 0.0, 0.0, 0.0, 0.0, 0.0)",1.375,2.6875,16.25,"(0.0, 0.0, 0.0, 0.0, 0.0, 0.0, 0.0, 0.0, 0.0)",0.15673828125,0.9404296875,0.21630859375,"(0.0, 0.0, 0.0, 0.0, 0.0, 0.0, 0.0, 0.0, 0.0)"
2022/11/28/23:08:21.920126,9211,1669698501,919653892,RL_myo,0.7353867361549593,0.6382751577002331,0.045168176025454004,0.22309416672031673,"(0.0, 0.0, 0.0, 0.0, 0.0, 0.0, 0.0, 0.0, 0.0)",11.0625,-1.3125,9.8125,"(0.0, 0.0, 0.0, 0.0, 0.0, 0.0, 0.0, 0.0, 0.0)",0.15380859375,1.0107421875,0.22802734375,"(0.0, 0.0, 0.0, 0.0, 0.0, 0.0, 0.0, 0.0, 0.0)"
2022/11/28/23:08:21.937893,9212,1669698501,937646150,RL_myo,0.735006093046495,0.6388730091278577,0.04681528594640937,0.2222963121470964,"(0.0, 0.0, 0.0, 0.0, 0.0, 0.0, 0.0, 0.0, 0.0)",5.75,2.625,-3.0625,"(0.0, 0.0, 0.0, 0.0, 0.0, 0.0, 0.0, 0.0, 0.0)",0.15625,1.06103515625,0.19140625,"(0.0, 0.0, 0.0, 0.0, 0.0, 0.0, 0.0, 0.0, 0.0)"
2022/11/28/23:08:21.957575,9213,1669698501,957196950,RL_myo,0.7369643469785608,0.6369242140733213,0.047487018548063635,0.22126020853050213,"(0.0, 0.0, 0.0, 0.0, 0.0, 0.0, 0.0, 0.0, 0.0)",-15.875,0.1875,-4.8125,"(0.0, 0.0, 0.0, 0.0, 0.0, 0.0, 0.0, 0.0, 0.0)",0.14892578125,1.017578125,0.1728515625,"(0.0, 0.0, 0.0, 0.0, 0.0, 0.0, 0.0, 0.0, 0.0)"
2022/11/28/23:08:21.979915,9214,1669698501,979597091,RL_myo,0.7390115085320937,0.6349382763484628,0.047611214723303305,0.22011030806696374,"(0.0, 0.0, 0.0, 0.0, 0.0, 0.0, 0.0, 0.0, 0.0)",-14.375,-2.75,-4.25,"(0.0, 0.0, 0.0, 0.0, 0.0, 0.0, 0.0, 0.0, 0.0)",0.1376953125,0.916015625,0.193359375,"(0.0, 0.0, 0.0, 0.0, 0.0, 0.0, 0.0, 0.0, 0.0)"
2022/11/28/23:08:21.998359,9215,1669698501,998046159,RL_myo,0.7393607890831884,0.6346795579036566,0.04791531572940666,0.21961695031134415,"(0.0, 0.0, 0.0, 0.0, 0.0, 0.0, 0.0, 0.0, 0.0)",-0.625,-1.25,-0.75,"(0.0, 0.0, 0.0, 0.0, 0.0, 0.0, 0.0, 0.0, 0.0)",0.1494140625,0.8876953125,0.19580078125,"(0.0, 0.0, 0.0, 0.0, 0.0, 0.0, 0.0, 0.0, 0.0)"
2022/11/28/23:08:22.017852,9216,1669698502,17376661,RL_myo,0.7386328319635819,0.6356600538855253,0.048648075950332596,0.21906893925438356,"(0.0, 0.0, 0.0, 0.0, 0.0, 0.0, 0.0, 0.0, 0.0)",7.0625,-0.3125,-0.625,"(0.0, 0.0, 0.0, 0.0, 0.0, 0.0, 0.0, 0.0, 0.0)",0.1630859375,0.984375,0.18212890625,"(0.0, 0.0, 0.0, 0.0, 0.0, 0.0, 0.0, 0.0, 0.0)"
2022/11/28/23:08:22.040076,9217,1669698502,39594411,RL_myo,0.7381315781773976,0.6363203260149979,0.04901345053141903,0.21875990872304582,"(0.0, 0.0, 0.0, 0.0, 0.0, 0.0, 0.0, 0.0, 0.0)",5.0625,-0.75,0.1875,"(0.0, 0.0, 0.0, 0.0, 0.0, 0.0, 0.0, 0.0, 0.0)",0.18310546875,0.9990234375,0.1875,"(0.0, 0.0, 0.0, 0.0, 0.0, 0.0, 0.0, 0.0, 0.0)"
2022/11/28/23:08:22.058255,9218,1669698502,57906150,RL_myo,0.7387486730358482,0.6355936488740219,0.04913597304749714,0.2187618973940742,"(0.0, 0.0, 0.0, 0.0, 0.0, 0.0, 0.0, 0.0, 0.0)",-4.0625,0.9375,-0.6875,"(0.0, 0.0, 0.0, 0.0, 0.0, 0.0, 0.0, 0.0, 0.0)",0.19580078125,0.97412109375,0.20458984375,"(0.0, 0.0, 0.0, 0.0, 0.0, 0.0, 0.0, 0.0, 0.0)"
2022/11/28/23:08:22.079772,9219,1669698502,79311847,RL_myo,0.7399157603694879,0.6344402254809816,0.04999100872319837,0.21797056428637532,"(0.0, 0.0, 0.0, 0.0, 0.0, 0.0, 0.0, 0.0, 0.0)",-8.625,0.6875,-2.375,"(0.0, 0.0, 0.0, 0.0, 0.0, 0.0, 0.0, 0.0, 0.0)",0.12548828125,0.99365234375,0.1904296875,"(0.0, 0.0, 0.0, 0.0, 0.0, 0.0, 0.0, 0.0, 0.0)"
2022/11/28/23:08:22.099947,9220,1669698502,99564075,RL_myo,0.7408856794055383,0.6340682515789036,0.05169963506809119,0.21534393449849554,"(0.0, 0.0, 0.0, 0.0, 0.0, 0.0, 0.0, 0.0, 0.0)",-4.0,-3.4375,-10.4375,"(0.0, 0.0, 0.0, 0.0, 0.0, 0.0, 0.0, 0.0, 0.0)",0.087890625,1.0361328125,0.177734375,"(0.0, 0.0, 0.0, 0.0, 0.0, 0.0, 0.0, 0.0, 0.0)"
2022/11/28/23:08:22.118141,9221,1669698502,117785453,RL_myo,0.7415032903763086,0.6345017042691578,0.05432482124093799,0.21125641158975997,"(0.0, 0.0, 0.0, 0.0, 0.0, 0.0, 0.0, 0.0, 0.0)",3.8125,-5.8125,-20.8125,"(0.0, 0.0, 0.0, 0.0, 0.0, 0.0, 0.0, 0.0, 0.0)",0.1025390625,1.04345703125,0.19970703125,"(0.0, 0.0, 0.0, 0.0, 0.0, 0.0, 0.0, 0.0, 0.0)"
2022/11/28/23:08:22.139388,9222,1669698502,139022111,RL_myo,0.7420390680934915,0.6351004773803388,0.05884064009559314,0.2063084683849635,"(0.0, 0.0, 0.0, 0.0, 0.0, 0.0, 0.0, 0.0, 0.0)",7.6875,-1.1875,-29.8125,"(0.0, 0.0, 0.0, 0.0, 0.0, 0.0, 0.0, 0.0, 0.0)",0.07958984375,1.0966796875,0.21240234375,"(0.0, 0.0, 0.0, 0.0, 0.0, 0.0, 0.0, 0.0, 0.0)"
2022/11/28/23:08:22.159914,9223,1669698502,159487485,RL_myo,0.7437028906369252,0.6345646135145662,0.06628868509780866,0.1995985269519653,"(0.0, 0.0, 0.0, 0.0, 0.0, 0.0, 0.0, 0.0, 0.0)",3.625,5.0,-45.6875,"(0.0, 0.0, 0.0, 0.0, 0.0, 0.0, 0.0, 0.0, 0.0)",0.0107421875,1.173828125,0.23779296875,"(0.0, 0.0, 0.0, 0.0, 0.0, 0.0, 0.0, 0.0, 0.0)"
2022/11/28/23:08:22.178338,9224,1669698502,178019285,RL_myo,0.7466614010894767,0.6330721860622948,0.07690618534887113,0.1892136306202385,"(0.0, 0.0, 0.0, 0.0, 0.0, 0.0, 0.0, 0.0, 0.0)",1.6875,5.0625,-74.125,"(0.0, 0.0, 0.0, 0.0, 0.0, 0.0, 0.0, 0.0, 0.0)",-0.03515625,1.1416015625,0.26123046875,"(0.0, 0.0, 0.0, 0.0, 0.0, 0.0, 0.0, 0.0, 0.0)"
2022/11/28/23:08:22.199594,9225,1669698502,199175119,RL_myo,0.7488113633205266,0.6326564868615306,0.08966448424501577,0.1760329289058036,"(0.0, 0.0, 0.0, 0.0, 0.0, 0.0, 0.0, 0.0, 0.0)",10.9375,5.875,-103.5,"(0.0, 0.0, 0.0, 0.0, 0.0, 0.0, 0.0, 0.0, 0.0)",-0.0107421875,1.1162109375,0.2578125,"(0.0, 0.0, 0.0, 0.0, 0.0, 0.0, 0.0, 0.0, 0.0)"
2022/11/28/23:08:22.219996,9226,1669698502,219628334,RL_myo,0.7503626553263093,0.6324336998158212,0.1050495509490424,0.16108411676613765,"(0.0, 0.0, 0.0, 0.0, 0.0, 0.0, 0.0, 0.0, 0.0)",17.4375,10.9375,-120.875,"(0.0, 0.0, 0.0, 0.0, 0.0, 0.0, 0.0, 0.0, 0.0)",0.01513671875,1.11865234375,0.25244140625,"(0.0, 0.0, 0.0, 0.0, 0.0, 0.0, 0.0, 0.0, 0.0)"
2022/11/28/23:08:22.238799,9227,1669698502,238302230,RL_myo,0.7522926757359208,0.6308882025481929,0.12219796647653659,0.14527030979728128,"(0.0, 0.0, 0.0, 0.0, 0.0, 0.0, 0.0, 0.0, 0.0)",12.5,16.5,-132.875,"(0.0, 0.0, 0.0, 0.0, 0.0, 0.0, 0.0, 0.0, 0.0)",-0.01904296875,1.08154296875,0.22900390625,"(0.0, 0.0, 0.0, 0.0, 0.0, 0.0, 0.0, 0.0, 0.0)"
2022/11/28/23:08:22.267248,9228,1669698502,266843318,RL_myo,0.7538173605689871,0.6286897824988313,0.14075326586818496,0.1292171135485462,"(0.0, 0.0, 0.0, 0.0, 0.0, 0.0, 0.0, 0.0, 0.0)",11.9375,22.8125,-139.5,"(0.0, 0.0, 0.0, 0.0, 0.0, 0.0, 0.0, 0.0, 0.0)",-0.01416015625,1.048828125,0.21337890625,"(0.0, 0.0, 0.0, 0.0, 0.0, 0.0, 0.0, 0.0, 0.0)"
2022/11/28/23:08:22.280125,9229,1669698502,279667615,RL_myo,0.7544138699336894,0.6263588295517412,0.16009931883786951,0.11358933753613236,"(0.0, 0.0, 0.0, 0.0, 0.0, 0.0, 0.0, 0.0, 0.0)",15.625,28.625,-140.8125,"(0.0, 0.0, 0.0, 0.0, 0.0, 0.0, 0.0, 0.0, 0.0)",-0.0419921875,1.0087890625,0.21484375,"(0.0, 0.0, 0.0, 0.0, 0.0, 0.0, 0.0, 0.0, 0.0)"
2022/11/28/23:08:22.297901,9230,1669698502,297566652,RL_myo,0.754664978099152,0.6234348177211856,0.17914442823689836,0.09857521349321663,"(0.0, 0.0, 0.0, 0.0, 0.0, 0.0, 0.0, 0.0, 0.0)",13.6875,30.6875,-137.375,"(0.0, 0.0, 0.0, 0.0, 0.0, 0.0, 0.0, 0.0, 0.0)",-0.0615234375,0.95166015625,0.2177734375,"(0.0, 0.0, 0.0, 0.0, 0.0, 0.0, 0.0, 0.0, 0.0)"
2022/11/28/23:08:22.319361,9231,1669698502,318985700,RL_myo,0.7546136681523087,0.6197805699602477,0.19770231102040992,0.08569745127281739,"(0.0, 0.0, 0.0, 0.0, 0.0, 0.0, 0.0, 0.0, 0.0)",8.875,36.5,-127.3125,"(0.0, 0.0, 0.0, 0.0, 0.0, 0.0, 0.0, 0.0, 0.0)",-0.09814453125,0.8994140625,0.201171875,"(0.0, 0.0, 0.0, 0.0, 0.0, 0.0, 0.0, 0.0, 0.0)"
2022/11/28/23:08:22.339867,9232,1669698502,339559078,RL_myo,0.7539507352711055,0.6162472978705538,0.21497850466522292,0.07471143944072482,"(0.0, 0.0, 0.0, 0.0, 0.0, 0.0, 0.0, 0.0, 0.0)",9.1875,38.5,-113.3125,"(0.0, 0.0, 0.0, 0.0, 0.0, 0.0, 0.0, 0.0, 0.0)",-0.154296875,0.837890625,0.1865234375,"(0.0, 0.0, 0.0, 0.0, 0.0, 0.0, 0.0, 0.0, 0.0)"
2022/11/28/23:08:22.362483,9233,1669698502,362070322,RL_myo,0.7519313687721069,0.6141067863638419,0.23078598143740045,0.0648837604517209,"(0.0, 0.0, 0.0, 0.0, 0.0, 0.0, 0.0, 0.0, 0.0)",17.375,37.4375,-100.9375,"(0.0, 0.0, 0.0, 0.0, 0.0, 0.0, 0.0, 0.0, 0.0)",-0.1708984375,0.8173828125,0.1611328125,"(0.0, 0.0, 0.0, 0.0, 0.0, 0.0, 0.0, 0.0, 0.0)"
2022/11/28/23:08:22.380920,9234,1669698502,380632162,RL_myo,0.7491714718303687,0.6129362815806226,0.24469842191363436,0.05633740170273996,"(0.0, 0.0, 0.0, 0.0, 0.0, 0.0, 0.0, 0.0, 0.0)",24.375,35.1875,-90.0625,"(0.0, 0.0, 0.0, 0.0, 0.0, 0.0, 0.0, 0.0, 0.0)",-0.19384765625,0.7919921875,0.154296875,"(0.0, 0.0, 0.0, 0.0, 0.0, 0.0, 0.0, 0.0, 0.0)"
2022/11/28/23:08:22.400178,9235,1669698502,399682044,RL_myo,0.7467355575046102,0.6115980289517896,0.25672468161389495,0.04925744604432078,"(0.0, 0.0, 0.0, 0.0, 0.0, 0.0, 0.0, 0.0, 0.0)",19.4375,32.0,-75.75,"(0.0, 0.0, 0.0, 0.0, 0.0, 0.0, 0.0, 0.0, 0.0)",-0.2431640625,0.79541015625,0.14599609375,"(0.0, 0.0, 0.0, 0.0, 0.0, 0.0, 0.0, 0.0, 0.0)"
2022/11/28/23:08:22.422662,9236,1669698502,422211170,RL_myo,0.7450121152354502,0.6098161595377177,0.26666868191575305,0.04437357101230315,"(0.0, 0.0, 0.0, 0.0, 0.0, 0.0, 0.0, 0.0, 0.0)",9.9375,29.0,-58.6875,"(0.0, 0.0, 0.0, 0.0, 0.0, 0.0, 0.0, 0.0, 0.0)",-0.29052734375,0.81005859375,0.125,"(0.0, 0.0, 0.0, 0.0, 0.0, 0.0, 0.0, 0.0, 0.0)"
2022/11/28/23:08:22.441085,9237,1669698502,440768718,RL_myo,0.7436729322444601,0.6083542445568395,0.27417751244600413,0.04101676054401487,"(0.0, 0.0, 0.0, 0.0, 0.0, 0.0, 0.0, 0.0, 0.0)",6.125,23.1875,-42.1875,"(0.0, 0.0, 0.0, 0.0, 0.0, 0.0, 0.0, 0.0, 0.0)",-0.30322265625,0.77783203125,0.10302734375,"(0.0, 0.0, 0.0, 0.0, 0.0, 0.0, 0.0, 0.0, 0.0)"
2022/11/28/23:08:22.460602,9238,1669698502,459888458,RL_myo,0.7424592694775675,0.6075665544541028,0.2794903810373053,0.038758766533891424,"(0.0, 0.0, 0.0, 0.0, 0.0, 0.0, 0.0, 0.0, 0.0)",7.25,17.4375,-29.75,"(0.0, 0.0, 0.0, 0.0, 0.0, 0.0, 0.0, 0.0, 0.0)",-0.2900390625,0.755859375,0.11083984375,"(0.0, 0.0, 0.0, 0.0, 0.0, 0.0, 0.0, 0.0, 0.0)"
2022/11/28/23:08:22.482593,9239,1669698502,482186555,RL_myo,0.7413616771016002,0.6076284781447744,0.2824205894902934,0.03753807273320304,"(0.0, 0.0, 0.0, 0.0, 0.0, 0.0, 0.0, 0.0, 0.0)",8.5625,10.625,-16.25,"(0.0, 0.0, 0.0, 0.0, 0.0, 0.0, 0.0, 0.0, 0.0)",-0.3017578125,0.7890625,0.1123046875,"(0.0, 0.0, 0.0, 0.0, 0.0, 0.0, 0.0, 0.0, 0.0)"
2022/11/28/23:08:22.501096,9240,1669698502,500651121,RL_myo,0.7407643419899745,0.6077612519111879,0.28370737158614057,0.03747769495565626,"(0.0, 0.0, 0.0, 0.0, 0.0, 0.0, 0.0, 0.0, 0.0)",3.5625,6.875,-6.625,"(0.0, 0.0, 0.0, 0.0, 0.0, 0.0, 0.0, 0.0, 0.0)",-0.310546875,0.8427734375,0.10595703125,"(0.0, 0.0, 0.0, 0.0, 0.0, 0.0, 0.0, 0.0, 0.0)"
2022/11/28/23:08:22.519875,9241,1669698502,519524335,RL_myo,0.7413480331929319,0.6067627859353644,0.28424648366371513,0.0380256730346778,"(0.0, 0.0, 0.0, 0.0, 0.0, 0.0, 0.0, 0.0, 0.0)",-5.8125,3.8125,-2.6875,"(0.0, 0.0, 0.0, 0.0, 0.0, 0.0, 0.0, 0.0, 0.0)",-0.32275390625,0.83984375,0.1083984375,"(0.0, 0.0, 0.0, 0.0, 0.0, 0.0, 0.0, 0.0, 0.0)"
2022/11/28/23:08:22.546117,9242,1669698502,545779228,RL_myo,0.7419353699746909,0.6061224371738939,0.2839558487142955,0.038943213989621785,"(0.0, 0.0, 0.0, 0.0, 0.0, 0.0, 0.0, 0.0, 0.0)",-5.625,1.5,3.5,"(0.0, 0.0, 0.0, 0.0, 0.0, 0.0, 0.0, 0.0, 0.0)",-0.3388671875,0.85107421875,0.1064453125,"(0.0, 0.0, 0.0, 0.0, 0.0, 0.0, 0.0, 0.0, 0.0)"
2022/11/28/23:08:22.561233,9243,1669698502,560781002,RL_myo,0.7419179968343526,0.6062913584990229,0.2835219329737201,0.039796835371122816,"(0.0, 0.0, 0.0, 0.0, 0.0, 0.0, 0.0, 0.0, 0.0)",1.25,1.9375,5.1875,"(0.0, 0.0, 0.0, 0.0, 0.0, 0.0, 0.0, 0.0, 0.0)",-0.359375,0.88330078125,0.1279296875,"(0.0, 0.0, 0.0, 0.0, 0.0, 0.0, 0.0, 0.0, 0.0)"
2022/11/28/23:08:22.580036,9244,1669698502,579624891,RL_myo,0.7420261081321567,0.6061578744641316,0.28345556026698493,0.0402843819500883,"(0.0, 0.0, 0.0, 0.0, 0.0, 0.0, 0.0, 0.0, 0.0)",-0.0625,1.625,3.5,"(0.0, 0.0, 0.0, 0.0, 0.0, 0.0, 0.0, 0.0, 0.0)",-0.37744140625,0.88916015625,0.12841796875,"(0.0, 0.0, 0.0, 0.0, 0.0, 0.0, 0.0, 0.0, 0.0)"
2022/11/28/23:08:22.599242,9245,1669698502,598942756,RL_myo,0.7422253773874434,0.6058048413298006,0.28364484611179686,0.04059045032587581,"(0.0, 0.0, 0.0, 0.0, 0.0, 0.0, 0.0, 0.0, 0.0)",-1.875,2.0625,1.875,"(0.0, 0.0, 0.0, 0.0, 0.0, 0.0, 0.0, 0.0, 0.0)",-0.39599609375,0.91162109375,0.119140625,"(0.0, 0.0, 0.0, 0.0, 0.0, 0.0, 0.0, 0.0, 0.0)"
2022/11/28/23:08:22.620756,9246,1669698502,620356559,RL_myo,0.7424535714138807,0.6053645611051356,0.28400497104478684,0.0404675039335254,"(0.0, 0.0, 0.0, 0.0, 0.0, 0.0, 0.0, 0.0, 0.0)",-1.8125,0.5,0.8125,"(0.0, 0.0, 0.0, 0.0, 0.0, 0.0, 0.0, 0.0, 0.0)",-0.4140625,0.89306640625,0.1103515625,"(0.0, 0.0, 0.0, 0.0, 0.0, 0.0, 0.0, 0.0, 0.0)"
2022/11/28/23:08:22.639851,9247,1669698502,639548778,RL_myo,0.7424699647653986,0.6053168892287454,0.28407228017248976,0.04040735914787026,"(0.0, 0.0, 0.0, 0.0, 0.0, 0.0, 0.0, 0.0, 0.0)",0.875,-0.3125,-0.5,"(0.0, 0.0, 0.0, 0.0, 0.0, 0.0, 0.0, 0.0, 0.0)",-0.4150390625,0.91064453125,0.11083984375,"(0.0, 0.0, 0.0, 0.0, 0.0, 0.0, 0.0, 0.0, 0.0)"
2022/11/28/23:08:22.658123,9248,1669698502,657874107,RL_myo,0.7424270539350586,0.6051485499228949,0.2846285745703509,0.03979794780610525,"(0.0, 0.0, 0.0, 0.0, 0.0, 0.0, 0.0, 0.0, 0.0)",0.75,0.0625,-1.875,"(0.0, 0.0, 0.0, 0.0, 0.0, 0.0, 0.0, 0.0, 0.0)",-0.4150390625,0.90966796875,0.1064453125,"(0.0, 0.0, 0.0, 0.0, 0.0, 0.0, 0.0, 0.0, 0.0)"
2022/11/28/23:08:22.681025,9249,1669698502,680761814,RL_myo,0.7424769619715526,0.6048953216982971,0.28511261833024676,0.03924800119596418,"(0.0, 0.0, 0.0, 0.0, 0.0, 0.0, 0.0, 0.0, 0.0)",0.375,0.0625,-1.375,"(0.0, 0.0, 0.0, 0.0, 0.0, 0.0, 0.0, 0.0, 0.0)",-0.40966796875,0.88427734375,0.1123046875,"(0.0, 0.0, 0.0, 0.0, 0.0, 0.0, 0.0, 0.0, 0.0)"
2022/11/28/23:08:22.699970,9250,1669698502,699632406,RL_myo,0.7422653350385928,0.604994161738552,0.2855289233871012,0.03869716490539165,"(0.0, 0.0, 0.0, 0.0, 0.0, 0.0, 0.0, 0.0, 0.0)",2.4375,0.125,-0.8125,"(0.0, 0.0, 0.0, 0.0, 0.0, 0.0, 0.0, 0.0, 0.0)",-0.3994140625,0.87353515625,0.103515625,"(0.0, 0.0, 0.0, 0.0, 0.0, 0.0, 0.0, 0.0, 0.0)"
2022/11/28/23:08:22.719056,9251,1669698502,718690872,RL_myo,0.7418803258435906,0.6053338153193095,0.28585038390040607,0.03839416858282199,"(0.0, 0.0, 0.0, 0.0, 0.0, 0.0, 0.0, 0.0, 0.0)",2.75,0.375,0.5625,"(0.0, 0.0, 0.0, 0.0, 0.0, 0.0, 0.0, 0.0, 0.0)",-0.404296875,0.8974609375,0.09228515625,"(0.0, 0.0, 0.0, 0.0, 0.0, 0.0, 0.0, 0.0, 0.0)"
2022/11/28/23:08:22.740499,9252,1669698502,740233182,RL_myo,0.7418750974911832,0.6053295492693815,0.2858483693887782,0.03857701675287377,"(0.0, 0.0, 0.0, 0.0, 0.0, 0.0, 0.0, 0.0, 0.0)",0.125,0.4375,3.375,"(0.0, 0.0, 0.0, 0.0, 0.0, 0.0, 0.0, 0.0, 0.0)",-0.40234375,0.8896484375,0.1083984375,"(0.0, 0.0, 0.0, 0.0, 0.0, 0.0, 0.0, 0.0, 0.0)"
2022/11/28/23:08:22.760090,9253,1669698502,759537935,RL_myo,0.7420986462935375,0.6050685869968611,0.28577939315235584,0.03888113486502578,"(0.0, 0.0, 0.0, 0.0, 0.0, 0.0, 0.0, 0.0, 0.0)",-0.8125,0.6875,3.5,"(0.0, 0.0, 0.0, 0.0, 0.0, 0.0, 0.0, 0.0, 0.0)",-0.3935546875,0.85791015625,0.1171875,"(0.0, 0.0, 0.0, 0.0, 0.0, 0.0, 0.0, 0.0, 0.0)"
2022/11/28/23:08:22.779224,9254,1669698502,778895378,RL_myo,0.742055987836274,0.6052666920609108,0.28542023518322096,0.039248334307701256,"(0.0, 0.0, 0.0, 0.0, 0.0, 0.0, 0.0, 0.0, 0.0)",1.0,-0.125,4.5625,"(0.0, 0.0, 0.0, 0.0, 0.0, 0.0, 0.0, 0.0, 0.0)",-0.375,0.85986328125,0.10986328125,"(0.0, 0.0, 0.0, 0.0, 0.0, 0.0, 0.0, 0.0, 0.0)"
2022/11/28/23:08:22.800856,9255,1669698502,800508022,RL_myo,0.7420439185778831,0.6053789244431558,0.28517143930211974,0.039552887985396745,"(0.0, 0.0, 0.0, 0.0, 0.0, 0.0, 0.0, 0.0, 0.0)",0.3125,-0.1875,4.8125,"(0.0, 0.0, 0.0, 0.0, 0.0, 0.0, 0.0, 0.0, 0.0)",-0.390625,0.87158203125,0.10400390625,"(0.0, 0.0, 0.0, 0.0, 0.0, 0.0, 0.0, 0.0, 0.0)"
2022/11/28/23:08:22.819976,9256,1669698502,819544553,RL_myo,0.7423007027196931,0.605206107019633,0.28481005500288525,0.03998083712535145,"(0.0, 0.0, 0.0, 0.0, 0.0, 0.0, 0.0, 0.0, 0.0)",-2.0,-0.75,5.375,"(0.0, 0.0, 0.0, 0.0, 0.0, 0.0, 0.0, 0.0, 0.0)",-0.39990234375,0.87841796875,0.10693359375,"(0.0, 0.0, 0.0, 0.0, 0.0, 0.0, 0.0, 0.0, 0.0)"
2022/11/28/23:08:22.838115,9257,1669698502,837801694,RL_myo,0.7427910939166106,0.6047805208748276,0.284383573552263,0.04034718654604976,"(0.0, 0.0, 0.0, 0.0, 0.0, 0.0, 0.0, 0.0, 0.0)",-3.875,-1.375,6.8125,"(0.0, 0.0, 0.0, 0.0, 0.0, 0.0, 0.0, 0.0, 0.0)",-0.42138671875,0.861328125,0.10546875,"(0.0, 0.0, 0.0, 0.0, 0.0, 0.0, 0.0, 0.0, 0.0)"
2022/11/28/23:08:22.860999,9258,1669698502,860583305,RL_myo,0.7432501697681961,0.6045125795667418,0.2837620135708585,0.0402845620470567,"(0.0, 0.0, 0.0, 0.0, 0.0, 0.0, 0.0, 0.0, 0.0)",-2.75,-4.375,7.9375,"(0.0, 0.0, 0.0, 0.0, 0.0, 0.0, 0.0, 0.0, 0.0)",-0.44775390625,0.8515625,0.099609375,"(0.0, 0.0, 0.0, 0.0, 0.0, 0.0, 0.0, 0.0, 0.0)"
2022/11/28/23:08:22.880577,9259,1669698502,880040407,RL_myo,0.7433622978674096,0.6048707095710673,0.2827205980558208,0.04016195024195381,"(0.0, 0.0, 0.0, 0.0, 0.0, 0.0, 0.0, 0.0, 0.0)",-0.9375,-6.75,10.875,"(0.0, 0.0, 0.0, 0.0, 0.0, 0.0, 0.0, 0.0, 0.0)",-0.45361328125,0.85693359375,0.07275390625,"(0.0, 0.0, 0.0, 0.0, 0.0, 0.0, 0.0, 0.0, 0.0)"
2022/11/28/23:08:22.899898,9260,1669698502,899458408,RL_myo,0.7432654496335617,0.6054405842913114,0.2817535776881433,0.04016331328396843,"(0.0, 0.0, 0.0, 0.0, 0.0, 0.0, 0.0, 0.0, 0.0)",-0.375,-6.5625,14.875,"(0.0, 0.0, 0.0, 0.0, 0.0, 0.0, 0.0, 0.0, 0.0)",-0.51123046875,0.85302734375,0.056640625,"(0.0, 0.0, 0.0, 0.0, 0.0, 0.0, 0.0, 0.0, 0.0)"
2022/11/28/23:08:22.920925,9261,1669698502,920616149,RL_myo,0.7431310618618369,0.606040929217756,0.28083334830606255,0.04004057302516345,"(0.0, 0.0, 0.0, 0.0, 0.0, 0.0, 0.0, 0.0, 0.0)",-0.8125,-7.875,20.25,"(0.0, 0.0, 0.0, 0.0, 0.0, 0.0, 0.0, 0.0, 0.0)",-0.5888671875,0.8369140625,0.03515625,"(0.0, 0.0, 0.0, 0.0, 0.0, 0.0, 0.0, 0.0, 0.0)"
2022/11/28/23:08:22.940411,9262,1669698502,939844369,RL_myo,0.7429433132866772,0.6065864810584126,0.28016018797123304,0.039979286083040876,"(0.0, 0.0, 0.0, 0.0, 0.0, 0.0, 0.0, 0.0, 0.0)",-1.625,-7.4375,27.0625,"(0.0, 0.0, 0.0, 0.0, 0.0, 0.0, 0.0, 0.0, 0.0)",-0.69189453125,0.814453125,0.025390625,"(0.0, 0.0, 0.0, 0.0, 0.0, 0.0, 0.0, 0.0, 0.0)"
2022/11/28/23:08:22.962576,9263,1669698502,962148427,RL_myo,0.7425898446635982,0.6073903948912927,0.27931046598558484,0.04028516336330551,"(0.0, 0.0, 0.0, 0.0, 0.0, 0.0, 0.0, 0.0, 0.0)",-0.75,-7.4375,35.3125,"(0.0, 0.0, 0.0, 0.0, 0.0, 0.0, 0.0, 0.0, 0.0)",-0.76513671875,0.787109375,0.01904296875,"(0.0, 0.0, 0.0, 0.0, 0.0, 0.0, 0.0, 0.0, 0.0)"
2022/11/28/23:08:22.980696,9264,1669698502,980361461,RL_myo,0.7413094663712879,0.6097110135514858,0.27747985460056607,0.04144496728415846,"(0.0, 0.0, 0.0, 0.0, 0.0, 0.0, 0.0, 0.0, 0.0)",8.8125,-7.125,46.125,"(0.0, 0.0, 0.0, 0.0, 0.0, 0.0, 0.0, 0.0, 0.0)",-0.78955078125,0.7998046875,0.04248046875,"(0.0, 0.0, 0.0, 0.0, 0.0, 0.0, 0.0, 0.0, 0.0)"
2022/11/28/23:08:23.001438,9265,1669698503,1116752,RL_myo,0.740088580180596,0.6125186723391571,0.2740616680421341,0.044496872160961196,"(0.0, 0.0, 0.0, 0.0, 0.0, 0.0, 0.0, 0.0, 0.0)",10.6875,-5.75,60.5625,"(0.0, 0.0, 0.0, 0.0, 0.0, 0.0, 0.0, 0.0, 0.0)",-0.7802734375,0.828125,0.08544921875,"(0.0, 0.0, 0.0, 0.0, 0.0, 0.0, 0.0, 0.0, 0.0)"
2022/11/28/23:08:23.025988,9266,1669698503,25687456,RL_myo,0.7395558633544601,0.6150961072154915,0.2688184237547906,0.04950312026910426,"(0.0, 0.0, 0.0, 0.0, 0.0, 0.0, 0.0, 0.0, 0.0)",7.6875,-6.25,73.4375,"(0.0, 0.0, 0.0, 0.0, 0.0, 0.0, 0.0, 0.0, 0.0)",-0.74072265625,0.81298828125,0.1513671875,"(0.0, 0.0, 0.0, 0.0, 0.0, 0.0, 0.0, 0.0, 0.0)"
2022/11/28/23:08:23.045117,9267,1669698503,44702768,RL_myo,0.7395943679621522,0.6178240647448134,0.2609974017831281,0.05633783953363592,"(0.0, 0.0, 0.0, 0.0, 0.0, 0.0, 0.0, 0.0, 0.0)",4.875,-10.5,86.5,"(0.0, 0.0, 0.0, 0.0, 0.0, 0.0, 0.0, 0.0, 0.0)",-0.65771484375,0.79736328125,0.181640625,"(0.0, 0.0, 0.0, 0.0, 0.0, 0.0, 0.0, 0.0, 0.0)"
2022/11/28/23:08:23.061844,9268,1669698503,61494588,RL_myo,0.7388671988915064,0.6219790794468774,0.2512941972603331,0.06378490068910568,"(0.0, 0.0, 0.0, 0.0, 0.0, 0.0, 0.0, 0.0, 0.0)",15.375,-14.5625,96.125,"(0.0, 0.0, 0.0, 0.0, 0.0, 0.0, 0.0, 0.0, 0.0)",-0.58935546875,0.7626953125,0.22021484375,"(0.0, 0.0, 0.0, 0.0, 0.0, 0.0, 0.0, 0.0, 0.0)"
2022/11/28/23:08:23.084896,9269,1669698503,84553003,RL_myo,0.7355836778303951,0.6302299787236603,0.2376867348329233,0.07233147939830871,"(0.0, 0.0, 0.0, 0.0, 0.0, 0.0, 0.0, 0.0, 0.0)",32.8125,-24.8125,102.5,"(0.0, 0.0, 0.0, 0.0, 0.0, 0.0, 0.0, 0.0, 0.0)",-0.4921875,0.7568359375,0.279296875,"(0.0, 0.0, 0.0, 0.0, 0.0, 0.0, 0.0, 0.0, 0.0)"
2022/11/28/23:08:23.100789,9270,1669698503,100471019,RL_myo,0.7306966142619569,0.6409083994445366,0.22138807283669848,0.07941160263593734,"(0.0, 0.0, 0.0, 0.0, 0.0, 0.0, 0.0, 0.0, 0.0)",49.1875,-40.4375,107.6875,"(0.0, 0.0, 0.0, 0.0, 0.0, 0.0, 0.0, 0.0, 0.0)",-0.33837890625,0.833984375,0.25146484375,"(0.0, 0.0, 0.0, 0.0, 0.0, 0.0, 0.0, 0.0, 0.0)"
2022/11/28/23:08:23.121468,9271,1669698503,121126890,RL_myo,0.7261000175101572,0.6510851451564262,0.20325429205689505,0.08691715071742298,"(0.0, 0.0, 0.0, 0.0, 0.0, 0.0, 0.0, 0.0, 0.0)",44.5,-46.375,112.5625,"(0.0, 0.0, 0.0, 0.0, 0.0, 0.0, 0.0, 0.0, 0.0)",-0.12646484375,0.8779296875,0.22412109375,"(0.0, 0.0, 0.0, 0.0, 0.0, 0.0, 0.0, 0.0, 0.0)"
2022/11/28/23:08:23.150183,9272,1669698503,149710178,RL_myo,0.7228088356705067,0.6592685554870075,0.18317423710920372,0.09674480700369474,"(0.0, 0.0, 0.0, 0.0, 0.0, 0.0, 0.0, 0.0, 0.0)",27.625,-46.6875,124.1875,"(0.0, 0.0, 0.0, 0.0, 0.0, 0.0, 0.0, 0.0, 0.0)",0.04931640625,0.8701171875,0.23583984375,"(0.0, 0.0, 0.0, 0.0, 0.0, 0.0, 0.0, 0.0, 0.0)"
2022/11/28/23:08:23.161093,9273,1669698503,160537481,RL_myo,0.7196422171253282,0.6666609241257705,0.16187372008620612,0.10712231476293052,"(0.0, 0.0, 0.0, 0.0, 0.0, 0.0, 0.0, 0.0, 0.0)",22.3125,-49.25,127.3125,"(0.0, 0.0, 0.0, 0.0, 0.0, 0.0, 0.0, 0.0, 0.0)",0.24462890625,0.78564453125,0.16845703125,"(0.0, 0.0, 0.0, 0.0, 0.0, 0.0, 0.0, 0.0, 0.0)"
2022/11/28/23:08:23.181918,9274,1669698503,181485652,RL_myo,0.7150904926815804,0.6749868261265828,0.14075959676685657,0.11500046847734507,"(0.0, 0.0, 0.0, 0.0, 0.0, 0.0, 0.0, 0.0, 0.0)",33.0625,-57.25,114.5625,"(0.0, 0.0, 0.0, 0.0, 0.0, 0.0, 0.0, 0.0, 0.0)",0.4833984375,0.806640625,0.13623046875,"(0.0, 0.0, 0.0, 0.0, 0.0, 0.0, 0.0, 0.0, 0.0)"
2022/11/28/23:08:23.202425,9275,1669698503,202094078,RL_myo,0.7072514479867587,0.6858880228728064,0.1177429915566115,0.12445721087813937,"(0.0, 0.0, 0.0, 0.0, 0.0, 0.0, 0.0, 0.0, 0.0)",52.5625,-56.625,97.875,"(0.0, 0.0, 0.0, 0.0, 0.0, 0.0, 0.0, 0.0, 0.0)",0.630859375,0.86376953125,0.02978515625,"(0.0, 0.0, 0.0, 0.0, 0.0, 0.0, 0.0, 0.0, 0.0)"
2022/11/28/23:08:23.221104,9276,1669698503,220832586,RL_myo,0.6998023188776713,0.6947971910845646,0.09839348783522078,0.13361249681842324,"(0.0, 0.0, 0.0, 0.0, 0.0, 0.0, 0.0, 0.0, 0.0)",41.25,-42.9375,86.125,"(0.0, 0.0, 0.0, 0.0, 0.0, 0.0, 0.0, 0.0, 0.0)",0.5908203125,0.96337890625,-0.04833984375,"(0.0, 0.0, 0.0, 0.0, 0.0, 0.0, 0.0, 0.0, 0.0)"
2022/11/28/23:08:23.241530,9277,1669698503,241276502,RL_myo,0.6923592276189193,0.7024305731674622,0.08179153354574203,0.14331829907865842,"(0.0, 0.0, 0.0, 0.0, 0.0, 0.0, 0.0, 0.0, 0.0)",33.0,-28.8125,78.3125,"(0.0, 0.0, 0.0, 0.0, 0.0, 0.0, 0.0, 0.0, 0.0)",0.611328125,0.99462890625,-0.1337890625,"(0.0, 0.0, 0.0, 0.0, 0.0, 0.0, 0.0, 0.0, 0.0)"
2022/11/28/23:08:23.262810,9278,1669698503,262297391,RL_myo,0.6856892376985656,0.7081508399304574,0.06823932417188858,0.1539352196435626,"(0.0, 0.0, 0.0, 0.0, 0.0, 0.0, 0.0, 0.0, 0.0)",19.0625,-11.25,67.5,"(0.0, 0.0, 0.0, 0.0, 0.0, 0.0, 0.0, 0.0, 0.0)",0.65234375,0.95166015625,-0.2158203125,"(0.0, 0.0, 0.0, 0.0, 0.0, 0.0, 0.0, 0.0, 0.0)"
2022/11/28/23:08:23.281013,9279,1669698503,280578613,RL_myo,0.6815311718751098,0.7108285892582419,0.058655871052479,0.16369931962825046,"(0.0, 0.0, 0.0, 0.0, 0.0, 0.0, 0.0, 0.0, 0.0)",6.9375,1.875,52.0,"(0.0, 0.0, 0.0, 0.0, 0.0, 0.0, 0.0, 0.0, 0.0)",0.56591796875,0.90869140625,-0.1337890625,"(0.0, 0.0, 0.0, 0.0, 0.0, 0.0, 0.0, 0.0, 0.0)"
2022/11/28/23:08:23.301532,9280,1669698503,301145553,RL_myo,0.6775863101988279,0.7134157998021711,0.053591638623058366,0.17041896928881428,"(0.0, 0.0, 0.0, 0.0, 0.0, 0.0, 0.0, 0.0, 0.0)",11.875,7.1875,32.125,"(0.0, 0.0, 0.0, 0.0, 0.0, 0.0, 0.0, 0.0, 0.0)",0.42822265625,0.84716796875,-0.1240234375,"(0.0, 0.0, 0.0, 0.0, 0.0, 0.0, 0.0, 0.0, 0.0)"
2022/11/28/23:08:23.322780,9281,1669698503,322161912,RL_myo,0.67153203731495,0.7179813992851989,0.050599896285592944,0.17603148478606762,"(0.0, 0.0, 0.0, 0.0, 0.0, 0.0, 0.0, 0.0, 0.0)",31.75,9.4375,30.1875,"(0.0, 0.0, 0.0, 0.0, 0.0, 0.0, 0.0, 0.0, 0.0)",0.3408203125,0.9619140625,-0.1240234375,"(0.0, 0.0, 0.0, 0.0, 0.0, 0.0, 0.0, 0.0, 0.0)"
2022/11/28/23:08:23.340770,9282,1669698503,340401887,RL_myo,0.6649981756213924,0.7230443679128971,0.04840234541236936,0.18066953646987804,"(0.0, 0.0, 0.0, 0.0, 0.0, 0.0, 0.0, 0.0, 0.0)",39.875,7.6875,29.875,"(0.0, 0.0, 0.0, 0.0, 0.0, 0.0, 0.0, 0.0, 0.0)",0.28125,1.02685546875,-0.09521484375,"(0.0, 0.0, 0.0, 0.0, 0.0, 0.0, 0.0, 0.0, 0.0)"
2022/11/28/23:08:23.363576,9283,1669698503,363194942,RL_myo,0.6623943694240263,0.7248982244083797,0.04620646310855031,0.18336091833300544,"(0.0, 0.0, 0.0, 0.0, 0.0, 0.0, 0.0, 0.0, 0.0)",11.6875,1.875,19.75,"(0.0, 0.0, 0.0, 0.0, 0.0, 0.0, 0.0, 0.0, 0.0)",0.2626953125,1.06982421875,-0.10302734375,"(0.0, 0.0, 0.0, 0.0, 0.0, 0.0, 0.0, 0.0, 0.0)"
2022/11/28/23:08:23.382805,9284,1669698503,382097959,RL_myo,0.6636707258908802,0.723305260903792,0.04352039249151086,0.18567886950796078,"(0.0, 0.0, 0.0, 0.0, 0.0, 0.0, 0.0, 0.0, 0.0)",-19.75,2.0,16.875,"(0.0, 0.0, 0.0, 0.0, 0.0, 0.0, 0.0, 0.0, 0.0)",0.248046875,1.0595703125,-0.126953125,"(0.0, 0.0, 0.0, 0.0, 0.0, 0.0, 0.0, 0.0, 0.0)"
2022/11/28/23:08:23.400629,9285,1669698503,400292158,RL_myo,0.6658091554888416,0.7207439042915513,0.03979717357707414,0.188792420051979,"(0.0, 0.0, 0.0, 0.0, 0.0, 0.0, 0.0, 0.0, 0.0)",-25.625,1.5,24.4375,"(0.0, 0.0, 0.0, 0.0, 0.0, 0.0, 0.0, 0.0, 0.0)",0.21533203125,0.97216796875,-0.07763671875,"(0.0, 0.0, 0.0, 0.0, 0.0, 0.0, 0.0, 0.0, 0.0)"
2022/11/28/23:08:23.423264,9286,1669698503,422905683,RL_myo,0.6658414727857505,0.7202245282676557,0.036621586183101136,0.1912867518297316,"(0.0, 0.0, 0.0, 0.0, 0.0, 0.0, 0.0, 0.0, 0.0)",-7.875,-1.125,21.9375,"(0.0, 0.0, 0.0, 0.0, 0.0, 0.0, 0.0, 0.0, 0.0)",0.2099609375,0.8603515625,-0.06103515625,"(0.0, 0.0, 0.0, 0.0, 0.0, 0.0, 0.0, 0.0, 0.0)"
2022/11/28/23:08:23.442913,9287,1669698503,442434310,RL_myo,0.6619088829884774,0.7242298871872265,0.03552480356872868,0.19001497166572576,"(0.0, 0.0, 0.0, 0.0, 0.0, 0.0, 0.0, 0.0, 0.0)",27.5,-12.25,7.6875,"(0.0, 0.0, 0.0, 0.0, 0.0, 0.0, 0.0, 0.0, 0.0)",0.20361328125,1.04541015625,-0.10009765625,"(0.0, 0.0, 0.0, 0.0, 0.0, 0.0, 0.0, 0.0, 0.0)"
2022/11/28/23:08:23.465170,9288,1669698503,464725732,RL_myo,0.6587825472286535,0.7272671222300942,0.03833182985820387,0.1887293279005834,"(0.0, 0.0, 0.0, 0.0, 0.0, 0.0, 0.0, 0.0, 0.0)",28.5625,2.4375,-11.0,"(0.0, 0.0, 0.0, 0.0, 0.0, 0.0, 0.0, 0.0, 0.0)",0.2548828125,1.2138671875,-0.06298828125,"(0.0, 0.0, 0.0, 0.0, 0.0, 0.0, 0.0, 0.0, 0.0)"
2022/11/28/23:08:23.483564,9289,1669698503,483218431,RL_myo,0.6606209844152392,0.7253219216304433,0.04046860506950971,0.1893417992844934,"(0.0, 0.0, 0.0, 0.0, 0.0, 0.0, 0.0, 0.0, 0.0)",-14.0,12.8125,-5.5,"(0.0, 0.0, 0.0, 0.0, 0.0, 0.0, 0.0, 0.0, 0.0)",0.21240234375,1.15771484375,-0.08251953125,"(0.0, 0.0, 0.0, 0.0, 0.0, 0.0, 0.0, 0.0, 0.0)"
2022/11/28/23:08:23.502213,9290,1669698503,501942873,RL_myo,0.6663620457606474,0.7197100743394517,0.0402246577041556,0.19068563075535977,"(0.0, 0.0, 0.0, 0.0, 0.0, 0.0, 0.0, 0.0, 0.0)",-43.4375,9.1875,4.25,"(0.0, 0.0, 0.0, 0.0, 0.0, 0.0, 0.0, 0.0, 0.0)",0.138671875,0.98388671875,-0.0087890625,"(0.0, 0.0, 0.0, 0.0, 0.0, 0.0, 0.0, 0.0, 0.0)"
2022/11/28/23:08:23.521077,9291,1669698503,520748376,RL_myo,0.6687823541088678,0.7173678021211576,0.03930782477376206,0.191228905304653,"(0.0, 0.0, 0.0, 0.0, 0.0, 0.0, 0.0, 0.0, 0.0)",-21.0625,0.9375,4.0,"(0.0, 0.0, 0.0, 0.0, 0.0, 0.0, 0.0, 0.0, 0.0)",0.17578125,0.85400390625,-0.04248046875,"(0.0, 0.0, 0.0, 0.0, 0.0, 0.0, 0.0, 0.0, 0.0)"
2022/11/28/23:08:23.543336,9292,1669698503,542991638,RL_myo,0.6668415237042722,0.7191511974630421,0.03967478173068896,0.1912324479419208,"(0.0, 0.0, 0.0, 0.0, 0.0, 0.0, 0.0, 0.0, 0.0)",15.25,0.0625,-1.625,"(0.0, 0.0, 0.0, 0.0, 0.0, 0.0, 0.0, 0.0, 0.0)",0.23095703125,0.8515625,-0.0322265625,"(0.0, 0.0, 0.0, 0.0, 0.0, 0.0, 0.0, 0.0, 0.0)"
2022/11/28/23:08:23.562531,9293,1669698503,562068223,RL_myo,0.6638434979950136,0.7220122046508842,0.04120029065342352,0.1905589739555381,"(0.0, 0.0, 0.0, 0.0, 0.0, 0.0, 0.0, 0.0, 0.0)",25.5625,0.3125,-4.4375,"(0.0, 0.0, 0.0, 0.0, 0.0, 0.0, 0.0, 0.0, 0.0)",0.21337890625,0.98095703125,-0.037109375,"(0.0, 0.0, 0.0, 0.0, 0.0, 0.0, 0.0, 0.0, 0.0)"
2022/11/28/23:08:23.580791,9294,1669698503,580432891,RL_myo,0.6625654520993948,0.7232980752996617,0.042299203897271355,0.18988863394575928,"(0.0, 0.0, 0.0, 0.0, 0.0, 0.0, 0.0, 0.0, 0.0)",11.375,0.4375,-3.75,"(0.0, 0.0, 0.0, 0.0, 0.0, 0.0, 0.0, 0.0, 0.0)",0.20361328125,1.0087890625,-0.05615234375,"(0.0, 0.0, 0.0, 0.0, 0.0, 0.0, 0.0, 0.0, 0.0)"
2022/11/28/23:08:23.603271,9295,1669698503,603009462,RL_myo,0.6633762022561752,0.722401302328104,0.04187302859290911,0.1905650076779333,"(0.0, 0.0, 0.0, 0.0, 0.0, 0.0, 0.0, 0.0, 0.0)",-7.5,1.8125,0.9375,"(0.0, 0.0, 0.0, 0.0, 0.0, 0.0, 0.0, 0.0, 0.0)",0.24951171875,0.95068359375,-0.04638671875,"(0.0, 0.0, 0.0, 0.0, 0.0, 0.0, 0.0, 0.0, 0.0)"
2022/11/28/23:08:23.622651,9296,1669698503,622199058,RL_myo,0.6649000605129514,0.7207509331255788,0.04168977704308692,0.19154102541904355,"(0.0, 0.0, 0.0, 0.0, 0.0, 0.0, 0.0, 0.0, 0.0)",-12.8125,4.5625,-0.9375,"(0.0, 0.0, 0.0, 0.0, 0.0, 0.0, 0.0, 0.0, 0.0)",0.25390625,0.90283203125,-0.03515625,"(0.0, 0.0, 0.0, 0.0, 0.0, 0.0, 0.0, 0.0, 0.0)"
2022/11/28/23:08:23.641452,9297,1669698503,641090631,RL_myo,0.6648545628454477,0.7205846597861284,0.042728442342252426,0.1920948686443834,"(0.0, 0.0, 0.0, 0.0, 0.0, 0.0, 0.0, 0.0, 0.0)",1.0625,6.1875,-2.875,"(0.0, 0.0, 0.0, 0.0, 0.0, 0.0, 0.0, 0.0, 0.0)",0.2080078125,0.8916015625,-0.033203125,"(0.0, 0.0, 0.0, 0.0, 0.0, 0.0, 0.0, 0.0, 0.0)"
2022/11/28/23:08:23.663681,9298,1669698503,663255214,RL_myo,0.6637283369551102,0.7216534971326345,0.04413054879699693,0.19165964484449569,"(0.0, 0.0, 0.0, 0.0, 0.0, 0.0, 0.0, 0.0, 0.0)",11.25,2.625,-4.25,"(0.0, 0.0, 0.0, 0.0, 0.0, 0.0, 0.0, 0.0, 0.0)",0.1845703125,0.94189453125,-0.0302734375,"(0.0, 0.0, 0.0, 0.0, 0.0, 0.0, 0.0, 0.0, 0.0)"
2022/11/28/23:08:23.682354,9299,1669698503,682059288,RL_myo,0.6626292955966564,0.7227517952431842,0.04504609618186555,0.19111019938403934,"(0.0, 0.0, 0.0, 0.0, 0.0, 0.0, 0.0, 0.0, 0.0)",10.9375,0.0,-2.1875,"(0.0, 0.0, 0.0, 0.0, 0.0, 0.0, 0.0, 0.0, 0.0)",0.1884765625,0.99072265625,-0.03662109375,"(0.0, 0.0, 0.0, 0.0, 0.0, 0.0, 0.0, 0.0, 0.0)"
2022/11/28/23:08:23.701012,9300,1669698503,700632572,RL_myo,0.6629926105728736,0.7224434301915422,0.0451679738375922,0.19098728397003512,"(0.0, 0.0, 0.0, 0.0, 0.0, 0.0, 0.0, 0.0, 0.0)",-1.625,0.25,-1.0,"(0.0, 0.0, 0.0, 0.0, 0.0, 0.0, 0.0, 0.0, 0.0)",0.212890625,0.99072265625,-0.03369140625,"(0.0, 0.0, 0.0, 0.0, 0.0, 0.0, 0.0, 0.0, 0.0)"
2022/11/28/23:08:23.724058,9301,1669698503,723632574,RL_myo,0.6643252081033811,0.7211505268046167,0.045228314884656874,0.19122848924916327,"(0.0, 0.0, 0.0, 0.0, 0.0, 0.0, 0.0, 0.0, 0.0)",-8.4375,1.875,-0.8125,"(0.0, 0.0, 0.0, 0.0, 0.0, 0.0, 0.0, 0.0, 0.0)",0.20703125,0.955078125,-0.0146484375,"(0.0, 0.0, 0.0, 0.0, 0.0, 0.0, 0.0, 0.0, 0.0)"
2022/11/28/23:08:23.742793,9302,1669698503,742303848,RL_myo,0.665194566167996,0.7202510443000875,0.04547347694945467,0.1915379472045487,"(0.0, 0.0, 0.0, 0.0, 0.0, 0.0, 0.0, 0.0, 0.0)",-4.6875,2.5625,1.0625,"(0.0, 0.0, 0.0, 0.0, 0.0, 0.0, 0.0, 0.0, 0.0)",0.181640625,0.96630859375,-0.0087890625,"(0.0, 0.0, 0.0, 0.0, 0.0, 0.0, 0.0, 0.0, 0.0)"
2022/11/28/23:08:23.760781,9303,1669698503,760311365,RL_myo,0.6657214741755999,0.7196164096938042,0.04577712529858805,0.19201978158581068,"(0.0, 0.0, 0.0, 0.0, 0.0, 0.0, 0.0, 0.0, 0.0)",-1.9375,3.125,1.0625,"(0.0, 0.0, 0.0, 0.0, 0.0, 0.0, 0.0, 0.0, 0.0)",0.19775390625,0.98046875,-0.00634765625,"(0.0, 0.0, 0.0, 0.0, 0.0, 0.0, 0.0, 0.0, 0.0)"
2022/11/28/23:08:23.783656,9304,1669698503,783226251,RL_myo,0.6668359301030553,0.7184127137128568,0.04638858644195167,0.19251263373409944,"(0.0, 0.0, 0.0, 0.0, 0.0, 0.0, 0.0, 0.0, 0.0)",-5.75,4.8125,-2.3125,"(0.0, 0.0, 0.0, 0.0, 0.0, 0.0, 0.0, 0.0, 0.0)",0.216796875,0.97119140625,0.00537109375,"(0.0, 0.0, 0.0, 0.0, 0.0, 0.0, 0.0, 0.0, 0.0)"
2022/11/28/23:08:23.802439,9305,1669698503,802041530,RL_myo,0.6689299577447662,0.7164185522447596,0.04754963382454355,0.19239595098197854,"(0.0, 0.0, 0.0, 0.0, 0.0, 0.0, 0.0, 0.0, 0.0)",-13.375,5.1875,-5.6875,"(0.0, 0.0, 0.0, 0.0, 0.0, 0.0, 0.0, 0.0, 0.0)",0.17138671875,0.9736328125,-0.0087890625,"(0.0, 0.0, 0.0, 0.0, 0.0, 0.0, 0.0, 0.0, 0.0)"
2022/11/28/23:08:23.821084,9306,1669698503,820617914,RL_myo,0.6699451743883383,0.7154179472490628,0.048341524974085635,0.1923895034322196,"(0.0, 0.0, 0.0, 0.0, 0.0, 0.0, 0.0, 0.0, 0.0)",-7.6875,4.1875,-2.5625,"(0.0, 0.0, 0.0, 0.0, 0.0, 0.0, 0.0, 0.0, 0.0)",0.1806640625,0.97314453125,-0.037109375,"(0.0, 0.0, 0.0, 0.0, 0.0, 0.0, 0.0, 0.0, 0.0)"
2022/11/28/23:08:23.843445,9307,1669698503,843021631,RL_myo,0.6704343568196454,0.714991629259407,0.049074037043244256,0.19208457036702695,"(0.0, 0.0, 0.0, 0.0, 0.0, 0.0, 0.0, 0.0, 0.0)",-3.4375,1.6875,-3.4375,"(0.0, 0.0, 0.0, 0.0, 0.0, 0.0, 0.0, 0.0, 0.0)",0.18994140625,0.98828125,-0.03369140625,"(0.0, 0.0, 0.0, 0.0, 0.0, 0.0, 0.0, 0.0, 0.0)"
2022/11/28/23:08:23.865209,9308,1669698503,864716053,RL_myo,0.6723952115523602,0.713412784370369,0.049501862433638716,0.19098807343385393,"(0.0, 0.0, 0.0, 0.0, 0.0, 0.0, 0.0, 0.0, 0.0)",-14.5,-1.3125,-9.75,"(0.0, 0.0, 0.0, 0.0, 0.0, 0.0, 0.0, 0.0, 0.0)",0.2333984375,1.03125,-0.04150390625,"(0.0, 0.0, 0.0, 0.0, 0.0, 0.0, 0.0, 0.0, 0.0)"
2022/11/28/23:08:23.885128,9309,1669698503,884727954,RL_myo,0.6754610811644516,0.7107418063508834,0.05084575100397508,0.1897712363401663,"(0.0, 0.0, 0.0, 0.0, 0.0, 0.0, 0.0, 0.0, 0.0)",-24.875,2.8125,-15.625,"(0.0, 0.0, 0.0, 0.0, 0.0, 0.0, 0.0, 0.0, 0.0)",0.23779296875,1.06787109375,-0.07470703125,"(0.0, 0.0, 0.0, 0.0, 0.0, 0.0, 0.0, 0.0, 0.0)"
2022/11/28/23:08:23.903458,9310,1669698503,903159379,RL_myo,0.6775848157194259,0.7090194774702144,0.05273698592753662,0.18811966507947667,"(0.0, 0.0, 0.0, 0.0, 0.0, 0.0, 0.0, 0.0, 0.0)",-20.25,3.5625,-20.0,"(0.0, 0.0, 0.0, 0.0, 0.0, 0.0, 0.0, 0.0, 0.0)",0.27294921875,1.1416015625,-0.119140625,"(0.0, 0.0, 0.0, 0.0, 0.0, 0.0, 0.0, 0.0, 0.0)"
