time,.header.seq,.header.stamp.secs,.header.stamp.nsecs,.header.frame_id,.orientation.x,.orientation.y,.orientation.z,.orientation.w,.orientation_covariance,.angular_velocity.x,.angular_velocity.y,.angular_velocity.z,.angular_velocity_covariance,.linear_acceleration.x,.linear_acceleration.y,.linear_acceleration.z,.linear_acceleration_covariance
2022/11/28/23:10:20.204686,12327,1669698620,204351902,RL_myo,0.7724767189681532,0.5146589518283398,-0.08288743555299874,-0.3626783078467736,"(0.0, 0.0, 0.0, 0.0, 0.0, 0.0, 0.0, 0.0, 0.0)",-111.5625,494.3125,24.875,"(0.0, 0.0, 0.0, 0.0, 0.0, 0.0, 0.0, 0.0, 0.0)",-0.34716796875,0.34716796875,0.31591796875,"(0.0, 0.0, 0.0, 0.0, 0.0, 0.0, 0.0, 0.0, 0.0)"
2022/11/28/23:10:20.228352,12328,1669698620,227978467,RL_myo,0.7953736254617932,0.5218056268953166,-0.016663111023794763,-0.30793185023825853,"(0.0, 0.0, 0.0, 0.0, 0.0, 0.0, 0.0, 0.0, 0.0)",-145.9375,479.625,97.375,"(0.0, 0.0, 0.0, 0.0, 0.0, 0.0, 0.0, 0.0, 0.0)",-0.52490234375,0.32470703125,0.28515625,"(0.0, 0.0, 0.0, 0.0, 0.0, 0.0, 0.0, 0.0, 0.0)"
2022/11/28/23:10:20.260908,12329,1669698620,258829593,RL_myo,0.8188874003438316,0.5172370177782968,0.04382536921935533,-0.24488493218391863,"(0.0, 0.0, 0.0, 0.0, 0.0, 0.0, 0.0, 0.0, 0.0)",-193.5625,454.4375,159.0625,"(0.0, 0.0, 0.0, 0.0, 0.0, 0.0, 0.0, 0.0, 0.0)",-0.7529296875,0.17431640625,-0.01708984375,"(0.0, 0.0, 0.0, 0.0, 0.0, 0.0, 0.0, 0.0, 0.0)"
2022/11/28/23:10:20.264254,12330,1669698620,264081239,RL_myo,0.8297332066689884,0.5216808678387409,0.08941879857069795,-0.17718960563190184,"(0.0, 0.0, 0.0, 0.0, 0.0, 0.0, 0.0, 0.0, 0.0)",-87.1875,422.0,198.8125,"(0.0, 0.0, 0.0, 0.0, 0.0, 0.0, 0.0, 0.0, 0.0)",-0.12158203125,0.39111328125,0.58544921875,"(0.0, 0.0, 0.0, 0.0, 0.0, 0.0, 0.0, 0.0, 0.0)"
2022/11/28/23:10:20.288511,12331,1669698620,287662744,RL_myo,0.8327396591604137,0.528526915536907,0.12531074692196215,-0.10724353742907329,"(0.0, 0.0, 0.0, 0.0, 0.0, 0.0, 0.0, 0.0, 0.0)",-44.5,389.0625,230.1875,"(0.0, 0.0, 0.0, 0.0, 0.0, 0.0, 0.0, 0.0, 0.0)",-0.0419921875,0.41455078125,0.51953125,"(0.0, 0.0, 0.0, 0.0, 0.0, 0.0, 0.0, 0.0, 0.0)"
2022/11/28/23:10:20.311061,12332,1669698620,310778141,RL_myo,0.8283385027130609,0.5379225719851305,0.1520441537291456,-0.03711073683955059,"(0.0, 0.0, 0.0, 0.0, 0.0, 0.0, 0.0, 0.0, 0.0)",-1.75,352.125,258.9375,"(0.0, 0.0, 0.0, 0.0, 0.0, 0.0, 0.0, 0.0, 0.0)",-0.1796875,0.43310546875,0.6201171875,"(0.0, 0.0, 0.0, 0.0, 0.0, 0.0, 0.0, 0.0, 0.0)"
2022/11/28/23:10:20.324952,12333,1669698620,324564218,RL_myo,0.8157912656128119,0.5534440258369896,0.16505047379102458,0.030702806330209085,"(0.0, 0.0, 0.0, 0.0, 0.0, 0.0, 0.0, 0.0, 0.0)",59.375,287.5625,294.5,"(0.0, 0.0, 0.0, 0.0, 0.0, 0.0, 0.0, 0.0, 0.0)",-0.23388671875,0.44287109375,0.72802734375,"(0.0, 0.0, 0.0, 0.0, 0.0, 0.0, 0.0, 0.0, 0.0)"
2022/11/28/23:10:20.348092,12334,1669698620,347669839,RL_myo,0.7980768702986235,0.5684504698348819,0.17896454177556895,0.08893292543212959,"(0.0, 0.0, 0.0, 0.0, 0.0, 0.0, 0.0, 0.0, 0.0)",75.3125,267.875,236.3125,"(0.0, 0.0, 0.0, 0.0, 0.0, 0.0, 0.0, 0.0, 0.0)",0.4345703125,0.78271484375,0.361328125,"(0.0, 0.0, 0.0, 0.0, 0.0, 0.0, 0.0, 0.0, 0.0)"
2022/11/28/23:10:20.370416,12335,1669698620,370001316,RL_myo,0.7788748313533675,0.5803716219833713,0.19191085186324353,0.1403317584076326,"(0.0, 0.0, 0.0, 0.0, 0.0, 0.0, 0.0, 0.0, 0.0)",73.875,243.0625,208.75,"(0.0, 0.0, 0.0, 0.0, 0.0, 0.0, 0.0, 0.0, 0.0)",0.26123046875,0.84716796875,0.42578125,"(0.0, 0.0, 0.0, 0.0, 0.0, 0.0, 0.0, 0.0, 0.0)"
2022/11/28/23:10:20.391462,12336,1669698620,390981674,RL_myo,0.761167486917826,0.5884856248095237,0.1992342163031102,0.1860495990477573,"(0.0, 0.0, 0.0, 0.0, 0.0, 0.0, 0.0, 0.0, 0.0)",54.6875,199.8125,196.0625,"(0.0, 0.0, 0.0, 0.0, 0.0, 0.0, 0.0, 0.0, 0.0)",0.328125,0.8212890625,0.44140625,"(0.0, 0.0, 0.0, 0.0, 0.0, 0.0, 0.0, 0.0, 0.0)"
2022/11/28/23:10:20.408514,12337,1669698620,408191919,RL_myo,0.7458829258979057,0.5932882192903146,0.20301199767073932,0.22461940812637424,"(0.0, 0.0, 0.0, 0.0, 0.0, 0.0, 0.0, 0.0, 0.0)",34.0,161.0,169.3125,"(0.0, 0.0, 0.0, 0.0, 0.0, 0.0, 0.0, 0.0, 0.0)",0.44873046875,0.8857421875,0.29541015625,"(0.0, 0.0, 0.0, 0.0, 0.0, 0.0, 0.0, 0.0, 0.0)"
2022/11/28/23:10:20.431276,12338,1669698620,430572509,RL_myo,0.7318014217758976,0.59598874653598,0.20539759648643718,0.2589901937271777,"(0.0, 0.0, 0.0, 0.0, 0.0, 0.0, 0.0, 0.0, 0.0)",23.875,141.5625,152.3125,"(0.0, 0.0, 0.0, 0.0, 0.0, 0.0, 0.0, 0.0, 0.0)",0.46630859375,0.79638671875,0.2685546875,"(0.0, 0.0, 0.0, 0.0, 0.0, 0.0, 0.0, 0.0, 0.0)"
2022/11/28/23:10:20.452330,12339,1669698620,451447486,RL_myo,0.7203120825241807,0.596831755183581,0.20801826770972018,0.2857809652044923,"(0.0, 0.0, 0.0, 0.0, 0.0, 0.0, 0.0, 0.0, 0.0)",18.25,116.3125,114.1875,"(0.0, 0.0, 0.0, 0.0, 0.0, 0.0, 0.0, 0.0, 0.0)",0.453125,0.6630859375,0.3359375,"(0.0, 0.0, 0.0, 0.0, 0.0, 0.0, 0.0, 0.0, 0.0)"
2022/11/28/23:10:20.468096,12340,1669698620,467748880,RL_myo,0.7106228625266047,0.5978827468173933,0.2077787514207664,0.3072122373386361,"(0.0, 0.0, 0.0, 0.0, 0.0, 0.0, 0.0, 0.0, 0.0)",18.25,88.4375,73.5625,"(0.0, 0.0, 0.0, 0.0, 0.0, 0.0, 0.0, 0.0, 0.0)",0.53369140625,0.76025390625,0.26171875,"(0.0, 0.0, 0.0, 0.0, 0.0, 0.0, 0.0, 0.0, 0.0)"
2022/11/28/23:10:20.490963,12341,1669698620,490687131,RL_myo,0.7022816882457014,0.5986423429787797,0.20733972666179798,0.3247122007185061,"(0.0, 0.0, 0.0, 0.0, 0.0, 0.0, 0.0, 0.0, 0.0)",5.25,71.875,64.375,"(0.0, 0.0, 0.0, 0.0, 0.0, 0.0, 0.0, 0.0, 0.0)",0.44189453125,0.9443359375,0.12451171875,"(0.0, 0.0, 0.0, 0.0, 0.0, 0.0, 0.0, 0.0, 0.0)"
2022/11/28/23:10:20.511752,12342,1669698620,511186361,RL_myo,0.6982193670069926,0.5961019615517344,0.20447896489845488,0.33961819722238895,"(0.0, 0.0, 0.0, 0.0, 0.0, 0.0, 0.0, 0.0, 0.0)",-20.8125,52.25,60.625,"(0.0, 0.0, 0.0, 0.0, 0.0, 0.0, 0.0, 0.0, 0.0)",0.31298828125,0.916015625,0.17431640625,"(0.0, 0.0, 0.0, 0.0, 0.0, 0.0, 0.0, 0.0, 0.0)"
2022/11/28/23:10:20.533996,12343,1669698620,533480167,RL_myo,0.6963858212482997,0.5931090389227565,0.20075492734557435,0.35066496126492086,"(0.0, 0.0, 0.0, 0.0, 0.0, 0.0, 0.0, 0.0, 0.0)",-26.6875,33.5625,45.125,"(0.0, 0.0, 0.0, 0.0, 0.0, 0.0, 0.0, 0.0, 0.0)",0.3037109375,0.93310546875,0.201171875,"(0.0, 0.0, 0.0, 0.0, 0.0, 0.0, 0.0, 0.0, 0.0)"
2022/11/28/23:10:20.550912,12344,1669698620,550459861,RL_myo,0.6950492481953774,0.5917104954778246,0.19764375741254342,0.35738239643311975,"(0.0, 0.0, 0.0, 0.0, 0.0, 0.0, 0.0, 0.0, 0.0)",-15.4375,17.75,25.4375,"(0.0, 0.0, 0.0, 0.0, 0.0, 0.0, 0.0, 0.0, 0.0)",0.33984375,0.96923828125,0.2177734375,"(0.0, 0.0, 0.0, 0.0, 0.0, 0.0, 0.0, 0.0, 0.0)"
2022/11/28/23:10:20.571748,12345,1669698620,571143865,RL_myo,0.6946877024597784,0.5906768207278161,0.19465416774837302,0.3614133983186318,"(0.0, 0.0, 0.0, 0.0, 0.0, 0.0, 0.0, 0.0, 0.0)",-16.0625,6.8125,15.875,"(0.0, 0.0, 0.0, 0.0, 0.0, 0.0, 0.0, 0.0, 0.0)",0.29833984375,0.9560546875,0.18798828125,"(0.0, 0.0, 0.0, 0.0, 0.0, 0.0, 0.0, 0.0, 0.0)"
2022/11/28/23:10:20.588534,12346,1669698620,588178396,RL_myo,0.6941502965339867,0.5917857127063842,0.1921548657658275,0.361968981572858,"(0.0, 0.0, 0.0, 0.0, 0.0, 0.0, 0.0, 0.0, 0.0)",-5.625,-8.25,10.625,"(0.0, 0.0, 0.0, 0.0, 0.0, 0.0, 0.0, 0.0, 0.0)",0.22265625,1.10693359375,0.1689453125,"(0.0, 0.0, 0.0, 0.0, 0.0, 0.0, 0.0, 0.0, 0.0)"
2022/11/28/23:10:20.610395,12347,1669698620,610056638,RL_myo,0.6957702293434562,0.591273463606462,0.19110944715100986,0.3602452753386331,"(0.0, 0.0, 0.0, 0.0, 0.0, 0.0, 0.0, 0.0, 0.0)",-3.625,-11.0,-9.875,"(0.0, 0.0, 0.0, 0.0, 0.0, 0.0, 0.0, 0.0, 0.0)",0.224609375,1.11767578125,0.32763671875,"(0.0, 0.0, 0.0, 0.0, 0.0, 0.0, 0.0, 0.0, 0.0)"
2022/11/28/23:10:20.631905,12348,1669698620,631276607,RL_myo,0.6991836733886705,0.588583864032034,0.18866667258353387,0.3593273055643041,"(0.0, 0.0, 0.0, 0.0, 0.0, 0.0, 0.0, 0.0, 0.0)",-29.125,-9.0,-11.375,"(0.0, 0.0, 0.0, 0.0, 0.0, 0.0, 0.0, 0.0, 0.0)",0.267578125,1.07373046875,0.22509765625,"(0.0, 0.0, 0.0, 0.0, 0.0, 0.0, 0.0, 0.0, 0.0)"
2022/11/28/23:10:20.647884,12349,1669698620,647480249,RL_myo,0.7036638777882034,0.5836601318017697,0.18586541532486808,0.36007227750456383,"(0.0, 0.0, 0.0, 0.0, 0.0, 0.0, 0.0, 0.0, 0.0)",-42.5625,-2.875,-3.625,"(0.0, 0.0, 0.0, 0.0, 0.0, 0.0, 0.0, 0.0, 0.0)",0.18896484375,0.99169921875,0.2412109375,"(0.0, 0.0, 0.0, 0.0, 0.0, 0.0, 0.0, 0.0, 0.0)"
2022/11/28/23:10:20.670307,12350,1669698620,669947862,RL_myo,0.7057142345659341,0.5820524944491219,0.18433289987797274,0.35944915476204686,"(0.0, 0.0, 0.0, 0.0, 0.0, 0.0, 0.0, 0.0, 0.0)",-18.1875,-7.0,-2.5,"(0.0, 0.0, 0.0, 0.0, 0.0, 0.0, 0.0, 0.0, 0.0)",0.1240234375,0.837890625,0.18994140625,"(0.0, 0.0, 0.0, 0.0, 0.0, 0.0, 0.0, 0.0, 0.0)"
2022/11/28/23:10:20.691280,12351,1669698620,690951108,RL_myo,0.7051891189214484,0.5834763946827772,0.18324052064417798,0.3587290272571066,"(0.0, 0.0, 0.0, 0.0, 0.0, 0.0, 0.0, 0.0, 0.0)",4.125,-8.375,0.9375,"(0.0, 0.0, 0.0, 0.0, 0.0, 0.0, 0.0, 0.0, 0.0)",0.185546875,0.9091796875,0.2109375,"(0.0, 0.0, 0.0, 0.0, 0.0, 0.0, 0.0, 0.0, 0.0)"
2022/11/28/23:10:20.708044,12352,1669698620,707619667,RL_myo,0.7048049678631526,0.584682323301389,0.18244237022109322,0.3579264165194013,"(0.0, 0.0, 0.0, 0.0, 0.0, 0.0, 0.0, 0.0, 0.0)",1.875,-7.25,0.75,"(0.0, 0.0, 0.0, 0.0, 0.0, 0.0, 0.0, 0.0, 0.0)",0.1787109375,1.00390625,0.2080078125,"(0.0, 0.0, 0.0, 0.0, 0.0, 0.0, 0.0, 0.0, 0.0)"
2022/11/28/23:10:20.731024,12353,1669698620,730559825,RL_myo,0.7052263913413539,0.584799554737884,0.18103699815807994,0.35761826439925504,"(0.0, 0.0, 0.0, 0.0, 0.0, 0.0, 0.0, 0.0, 0.0)",-6.3125,-7.25,3.6875,"(0.0, 0.0, 0.0, 0.0, 0.0, 0.0, 0.0, 0.0, 0.0)",0.1552734375,0.98095703125,0.220703125,"(0.0, 0.0, 0.0, 0.0, 0.0, 0.0, 0.0, 0.0, 0.0)"
2022/11/28/23:10:20.758855,12354,1669698620,758463144,RL_myo,0.7064632174206851,0.5837141652146199,0.17908787626682998,0.35793159728312574,"(0.0, 0.0, 0.0, 0.0, 0.0, 0.0, 0.0, 0.0, 0.0)",-12.9375,-6.125,4.75,"(0.0, 0.0, 0.0, 0.0, 0.0, 0.0, 0.0, 0.0, 0.0)",0.15380859375,0.9541015625,0.25048828125,"(0.0, 0.0, 0.0, 0.0, 0.0, 0.0, 0.0, 0.0, 0.0)"
2022/11/28/23:10:20.768560,12355,1669698620,768246412,RL_myo,0.7080489260144626,0.5823702416468954,0.17756157980828202,0.35774782373885905,"(0.0, 0.0, 0.0, 0.0, 0.0, 0.0, 0.0, 0.0, 0.0)",-13.5,-5.9375,0.8125,"(0.0, 0.0, 0.0, 0.0, 0.0, 0.0, 0.0, 0.0, 0.0)",0.14892578125,0.9326171875,0.2578125,"(0.0, 0.0, 0.0, 0.0, 0.0, 0.0, 0.0, 0.0, 0.0)"
2022/11/28/23:10:20.789633,12356,1669698620,789479970,RL_myo,0.7093991118569372,0.5813385941598236,0.17652574698763226,0.35726320785567484,"(0.0, 0.0, 0.0, 0.0, 0.0, 0.0, 0.0, 0.0, 0.0)",-9.125,-5.3125,-3.0625,"(0.0, 0.0, 0.0, 0.0, 0.0, 0.0, 0.0, 0.0, 0.0)",0.16552734375,0.92626953125,0.27294921875,"(0.0, 0.0, 0.0, 0.0, 0.0, 0.0, 0.0, 0.0, 0.0)"
2022/11/28/23:10:20.811969,12357,1669698620,811279296,RL_myo,0.7099616759692559,0.5809831684184832,0.17628486976177551,0.35684257223938354,"(0.0, 0.0, 0.0, 0.0, 0.0, 0.0, 0.0, 0.0, 0.0)",-2.4375,-2.5,-1.5,"(0.0, 0.0, 0.0, 0.0, 0.0, 0.0, 0.0, 0.0, 0.0)",0.1484375,0.91796875,0.2685546875,"(0.0, 0.0, 0.0, 0.0, 0.0, 0.0, 0.0, 0.0, 0.0)"
2022/11/28/23:10:20.829253,12358,1669698620,827782869,RL_myo,0.7103682034298272,0.5804168453698425,0.17579140968189572,0.3571983782841853,"(0.0, 0.0, 0.0, 0.0, 0.0, 0.0, 0.0, 0.0, 0.0)",-4.6875,-0.375,2.3125,"(0.0, 0.0, 0.0, 0.0, 0.0, 0.0, 0.0, 0.0, 0.0)",0.14501953125,0.908203125,0.25732421875,"(0.0, 0.0, 0.0, 0.0, 0.0, 0.0, 0.0, 0.0, 0.0)"
2022/11/28/23:10:20.851400,12359,1669698620,850691795,RL_myo,0.711404343650193,0.5792558748382952,0.1750585720796871,0.3573807320524993,"(0.0, 0.0, 0.0, 0.0, 0.0, 0.0, 0.0, 0.0, 0.0)",-10.8125,-1.125,0.6875,"(0.0, 0.0, 0.0, 0.0, 0.0, 0.0, 0.0, 0.0, 0.0)",0.1484375,0.927734375,0.24951171875,"(0.0, 0.0, 0.0, 0.0, 0.0, 0.0, 0.0, 0.0, 0.0)"
2022/11/28/23:10:20.871644,12360,1669698620,871156692,RL_myo,0.7119076659106429,0.5787797726283731,0.17469602502240075,0.3573272293784535,"(0.0, 0.0, 0.0, 0.0, 0.0, 0.0, 0.0, 0.0, 0.0)",-6.125,-1.375,1.3125,"(0.0, 0.0, 0.0, 0.0, 0.0, 0.0, 0.0, 0.0, 0.0)",0.138671875,0.9560546875,0.244140625,"(0.0, 0.0, 0.0, 0.0, 0.0, 0.0, 0.0, 0.0, 0.0)"
2022/11/28/23:10:20.888451,12361,1669698620,887791156,RL_myo,0.712126517362934,0.5787592043914751,0.17389632707354066,0.3573145309541969,"(0.0, 0.0, 0.0, 0.0, 0.0, 0.0, 0.0, 0.0, 0.0)",-6.3125,-3.3125,2.9375,"(0.0, 0.0, 0.0, 0.0, 0.0, 0.0, 0.0, 0.0, 0.0)",0.1611328125,1.001953125,0.22900390625,"(0.0, 0.0, 0.0, 0.0, 0.0, 0.0, 0.0, 0.0, 0.0)"
2022/11/28/23:10:20.910499,12362,1669698620,910162210,RL_myo,0.7121958308968669,0.5791321600573769,0.17286069532909898,0.35707452954633795,"(0.0, 0.0, 0.0, 0.0, 0.0, 0.0, 0.0, 0.0, 0.0)",-7.125,-4.9375,3.25,"(0.0, 0.0, 0.0, 0.0, 0.0, 0.0, 0.0, 0.0, 0.0)",0.17822265625,1.0625,0.20263671875,"(0.0, 0.0, 0.0, 0.0, 0.0, 0.0, 0.0, 0.0, 0.0)"
2022/11/28/23:10:20.932029,12363,1669698620,931279659,RL_myo,0.712427942048576,0.5796717071311965,0.1722473999709631,0.3560308589761261,"(0.0, 0.0, 0.0, 0.0, 0.0, 0.0, 0.0, 0.0, 0.0)",-10.9375,-5.8125,1.0,"(0.0, 0.0, 0.0, 0.0, 0.0, 0.0, 0.0, 0.0, 0.0)",0.16455078125,1.19091796875,0.1552734375,"(0.0, 0.0, 0.0, 0.0, 0.0, 0.0, 0.0, 0.0, 0.0)"
2022/11/28/23:10:20.947078,12364,1669698620,946806430,RL_myo,0.7129758385163087,0.5815626906415023,0.17871699813164557,0.34858359847330184,"(0.0, 0.0, 0.0, 0.0, 0.0, 0.0, 0.0, 0.0, 0.0)",16.5625,-4.75,-38.125,"(0.0, 0.0, 0.0, 0.0, 0.0, 0.0, 0.0, 0.0, 0.0)",-0.021484375,1.076171875,0.1474609375,"(0.0, 0.0, 0.0, 0.0, 0.0, 0.0, 0.0, 0.0, 0.0)"
2022/11/28/23:10:20.971761,12365,1669698620,970265865,RL_myo,0.711419074165579,0.5855549702677306,0.18336361208008575,0.34261649620689794,"(0.0, 0.0, 0.0, 0.0, 0.0, 0.0, 0.0, 0.0, 0.0)",31.125,-5.5,-36.5625,"(0.0, 0.0, 0.0, 0.0, 0.0, 0.0, 0.0, 0.0, 0.0)",0.236328125,1.25,0.23828125,"(0.0, 0.0, 0.0, 0.0, 0.0, 0.0, 0.0, 0.0, 0.0)"
2022/11/28/23:10:20.992686,12366,1669698620,991205692,RL_myo,0.709696186943941,0.5893280024893567,0.192821041933079,0.33443067070317817,"(0.0, 0.0, 0.0, 0.0, 0.0, 0.0, 0.0, 0.0, 0.0)",44.1875,6.625,-59.9375,"(0.0, 0.0, 0.0, 0.0, 0.0, 0.0, 0.0, 0.0, 0.0)",0.1904296875,1.2783203125,0.2412109375,"(0.0, 0.0, 0.0, 0.0, 0.0, 0.0, 0.0, 0.0, 0.0)"
2022/11/28/23:10:21.007073,12367,1669698621,6790876,RL_myo,0.7101140996580143,0.5903578796538004,0.20563644505310727,0.32392775716736133,"(0.0, 0.0, 0.0, 0.0, 0.0, 0.0, 0.0, 0.0, 0.0)",36.875,13.75,-83.6875,"(0.0, 0.0, 0.0, 0.0, 0.0, 0.0, 0.0, 0.0, 0.0)",0.0947265625,1.326171875,0.26953125,"(0.0, 0.0, 0.0, 0.0, 0.0, 0.0, 0.0, 0.0, 0.0)"
2022/11/28/23:10:21.038108,12368,1669698621,37773132,RL_myo,0.7118262272238207,0.5903604244305259,0.22291111145784542,0.3083644400561432,"(0.0, 0.0, 0.0, 0.0, 0.0, 0.0, 0.0, 0.0, 0.0)",45.0625,15.5625,-124.5,"(0.0, 0.0, 0.0, 0.0, 0.0, 0.0, 0.0, 0.0, 0.0)",0.0283203125,1.2705078125,0.2861328125,"(0.0, 0.0, 0.0, 0.0, 0.0, 0.0, 0.0, 0.0, 0.0)"
2022/11/28/23:10:21.052062,12369,1669698621,51514148,RL_myo,0.7139250024152596,0.5901967209604262,0.24428247774160985,0.28688846711283517,"(0.0, 0.0, 0.0, 0.0, 0.0, 0.0, 0.0, 0.0, 0.0)",57.0625,12.125,-163.1875,"(0.0, 0.0, 0.0, 0.0, 0.0, 0.0, 0.0, 0.0, 0.0)",-0.05126953125,1.2275390625,0.21875,"(0.0, 0.0, 0.0, 0.0, 0.0, 0.0, 0.0, 0.0, 0.0)"
2022/11/28/23:10:21.067058,12370,1669698621,66767454,RL_myo,0.71585116616842,0.5887704935931599,0.2674065449338206,0.26343908877753247,"(0.0, 0.0, 0.0, 0.0, 0.0, 0.0, 0.0, 0.0, 0.0)",58.5,14.9375,-180.0625,"(0.0, 0.0, 0.0, 0.0, 0.0, 0.0, 0.0, 0.0, 0.0)",-0.04931640625,1.16796875,0.19189453125,"(0.0, 0.0, 0.0, 0.0, 0.0, 0.0, 0.0, 0.0, 0.0)"
2022/11/28/23:10:21.090564,12371,1669698621,90131759,RL_myo,0.7175622987340239,0.5858423735325928,0.2907848580443084,0.23945193075311125,"(0.0, 0.0, 0.0, 0.0, 0.0, 0.0, 0.0, 0.0, 0.0)",55.0,16.875,-185.375,"(0.0, 0.0, 0.0, 0.0, 0.0, 0.0, 0.0, 0.0, 0.0)",-0.07958984375,1.0009765625,0.1845703125,"(0.0, 0.0, 0.0, 0.0, 0.0, 0.0, 0.0, 0.0, 0.0)"
2022/11/28/23:10:21.113670,12372,1669698621,113062620,RL_myo,0.7176156502176279,0.5834556434830573,0.3142200703683209,0.21417991975960332,"(0.0, 0.0, 0.0, 0.0, 0.0, 0.0, 0.0, 0.0, 0.0)",64.25,14.8125,-187.5,"(0.0, 0.0, 0.0, 0.0, 0.0, 0.0, 0.0, 0.0, 0.0)",-0.1416015625,0.8671875,0.12060546875,"(0.0, 0.0, 0.0, 0.0, 0.0, 0.0, 0.0, 0.0, 0.0)"
2022/11/28/23:10:21.134161,12373,1669698621,133656740,RL_myo,0.7147620566210972,0.5831628257009361,0.337421404696962,0.18757163108425548,"(0.0, 0.0, 0.0, 0.0, 0.0, 0.0, 0.0, 0.0, 0.0)",85.25,12.125,-184.875,"(0.0, 0.0, 0.0, 0.0, 0.0, 0.0, 0.0, 0.0, 0.0)",-0.17333984375,0.81689453125,0.115234375,"(0.0, 0.0, 0.0, 0.0, 0.0, 0.0, 0.0, 0.0, 0.0)"
2022/11/28/23:10:21.152233,12374,1669698621,150962114,RL_myo,0.7100197720122315,0.584215890468455,0.35763461521833434,0.16328257308568772,"(0.0, 0.0, 0.0, 0.0, 0.0, 0.0, 0.0, 0.0, 0.0)",91.125,10.3125,-159.6875,"(0.0, 0.0, 0.0, 0.0, 0.0, 0.0, 0.0, 0.0, 0.0)",-0.3212890625,0.8935546875,0.1826171875,"(0.0, 0.0, 0.0, 0.0, 0.0, 0.0, 0.0, 0.0, 0.0)"
2022/11/28/23:10:21.172937,12375,1669698621,172500371,RL_myo,0.7067074832574787,0.5817610142448635,0.3767316105255794,0.14209837804658926,"(0.0, 0.0, 0.0, 0.0, 0.0, 0.0, 0.0, 0.0, 0.0)",64.5625,16.75,-154.1875,"(0.0, 0.0, 0.0, 0.0, 0.0, 0.0, 0.0, 0.0, 0.0)",-0.21484375,0.8818359375,0.18798828125,"(0.0, 0.0, 0.0, 0.0, 0.0, 0.0, 0.0, 0.0, 0.0)"
2022/11/28/23:10:21.187429,12376,1669698621,186982154,RL_myo,0.701852080829226,0.5831372102132729,0.38983644145197555,0.12402499593399316,"(0.0, 0.0, 0.0, 0.0, 0.0, 0.0, 0.0, 0.0, 0.0)",74.0,3.1875,-112.3125,"(0.0, 0.0, 0.0, 0.0, 0.0, 0.0, 0.0, 0.0, 0.0)",-0.20361328125,0.77734375,0.16552734375,"(0.0, 0.0, 0.0, 0.0, 0.0, 0.0, 0.0, 0.0, 0.0)"
2022/11/28/23:10:21.210511,12377,1669698621,210099220,RL_myo,0.69841973464124,0.5849463657635905,0.39688211105028337,0.11194736875826203,"(0.0, 0.0, 0.0, 0.0, 0.0, 0.0, 0.0, 0.0, 0.0)",52.0,-4.875,-71.75,"(0.0, 0.0, 0.0, 0.0, 0.0, 0.0, 0.0, 0.0, 0.0)",-0.14990234375,0.5322265625,0.01953125,"(0.0, 0.0, 0.0, 0.0, 0.0, 0.0, 0.0, 0.0, 0.0)"
2022/11/28/23:10:21.239467,12378,1669698621,238963603,RL_myo,0.6966357804143036,0.5847516670786848,0.40212358900985123,0.10516984575955884,"(0.0, 0.0, 0.0, 0.0, 0.0, 0.0, 0.0, 0.0, 0.0)",27.75,4.125,-44.25,"(0.0, 0.0, 0.0, 0.0, 0.0, 0.0, 0.0, 0.0, 0.0)",-0.26904296875,0.5556640625,0.0576171875,"(0.0, 0.0, 0.0, 0.0, 0.0, 0.0, 0.0, 0.0, 0.0)"
2022/11/28/23:10:21.254185,12379,1669698621,253544330,RL_myo,0.6941221639586399,0.5864514378574228,0.4052911685442639,0.10004099777771815,"(0.0, 0.0, 0.0, 0.0, 0.0, 0.0, 0.0, 0.0, 0.0)",36.0625,3.5625,-24.6875,"(0.0, 0.0, 0.0, 0.0, 0.0, 0.0, 0.0, 0.0, 0.0)",-0.3203125,0.6123046875,0.10009765625,"(0.0, 0.0, 0.0, 0.0, 0.0, 0.0, 0.0, 0.0, 0.0)"
2022/11/28/23:10:21.272330,12380,1669698621,270267486,RL_myo,0.6913055113401146,0.5899229884427165,0.4058963138276322,0.09662163380287846,"(0.0, 0.0, 0.0, 0.0, 0.0, 0.0, 0.0, 0.0, 0.0)",37.75,-1.375,-8.5,"(0.0, 0.0, 0.0, 0.0, 0.0, 0.0, 0.0, 0.0, 0.0)",-0.296875,0.67138671875,0.080078125,"(0.0, 0.0, 0.0, 0.0, 0.0, 0.0, 0.0, 0.0, 0.0)"
2022/11/28/23:10:21.293059,12381,1669698621,292578697,RL_myo,0.6918758524355091,0.5900629788702308,0.4043216273959252,0.09827261776984293,"(0.0, 0.0, 0.0, 0.0, 0.0, 0.0, 0.0, 0.0, 0.0)",-0.6875,0.4375,8.0,"(0.0, 0.0, 0.0, 0.0, 0.0, 0.0, 0.0, 0.0, 0.0)",-0.30126953125,0.734375,0.0693359375,"(0.0, 0.0, 0.0, 0.0, 0.0, 0.0, 0.0, 0.0, 0.0)"
2022/11/28/23:10:21.314265,12382,1669698621,313626766,RL_myo,0.6940863481600626,0.5883039507138056,0.4018876542332119,0.10309663547993543,"(0.0, 0.0, 0.0, 0.0, 0.0, 0.0, 0.0, 0.0, 0.0)",-24.5625,3.75,20.5625,"(0.0, 0.0, 0.0, 0.0, 0.0, 0.0, 0.0, 0.0, 0.0)",-0.3427734375,0.75341796875,0.0263671875,"(0.0, 0.0, 0.0, 0.0, 0.0, 0.0, 0.0, 0.0, 0.0)"
2022/11/28/23:10:21.331168,12383,1669698621,330854177,RL_myo,0.696166242424042,0.5861103252744981,0.4002421790069657,0.10785846123308042,"(0.0, 0.0, 0.0, 0.0, 0.0, 0.0, 0.0, 0.0, 0.0)",-25.3125,7.3125,20.6875,"(0.0, 0.0, 0.0, 0.0, 0.0, 0.0, 0.0, 0.0, 0.0)",-0.42041015625,0.7919921875,0.03125,"(0.0, 0.0, 0.0, 0.0, 0.0, 0.0, 0.0, 0.0, 0.0)"
2022/11/28/23:10:21.354342,12384,1669698621,353956937,RL_myo,0.6977299126388778,0.5844426483699813,0.39919111439578875,0.11066261321094266,"(0.0, 0.0, 0.0, 0.0, 0.0, 0.0, 0.0, 0.0, 0.0)",-16.875,3.6875,12.9375,"(0.0, 0.0, 0.0, 0.0, 0.0, 0.0, 0.0, 0.0, 0.0)",-0.4365234375,0.81982421875,0.0322265625,"(0.0, 0.0, 0.0, 0.0, 0.0, 0.0, 0.0, 0.0, 0.0)"
2022/11/28/23:10:21.374291,12385,1669698621,373571157,RL_myo,0.69914154893889,0.5827400355962619,0.3986461896385447,0.11267812985343033,"(0.0, 0.0, 0.0, 0.0, 0.0, 0.0, 0.0, 0.0, 0.0)",-16.125,2.4375,6.9375,"(0.0, 0.0, 0.0, 0.0, 0.0, 0.0, 0.0, 0.0, 0.0)",-0.4326171875,0.85986328125,0.0048828125,"(0.0, 0.0, 0.0, 0.0, 0.0, 0.0, 0.0, 0.0, 0.0)"
2022/11/28/23:10:21.390294,12386,1669698621,389925003,RL_myo,0.7002274492756292,0.5813865458813082,0.39808955929006745,0.11487343615208631,"(0.0, 0.0, 0.0, 0.0, 0.0, 0.0, 0.0, 0.0, 0.0)",-16.0625,2.8125,7.0625,"(0.0, 0.0, 0.0, 0.0, 0.0, 0.0, 0.0, 0.0, 0.0)",-0.44140625,0.9306640625,-0.01611328125,"(0.0, 0.0, 0.0, 0.0, 0.0, 0.0, 0.0, 0.0, 0.0)"
2022/11/28/23:10:21.413321,12387,1669698621,412823438,RL_myo,0.7010329009102186,0.5800536053417333,0.39827946699513944,0.11603513666785595,"(0.0, 0.0, 0.0, 0.0, 0.0, 0.0, 0.0, 0.0, 0.0)",-12.1875,2.9375,1.9375,"(0.0, 0.0, 0.0, 0.0, 0.0, 0.0, 0.0, 0.0, 0.0)",-0.46044921875,0.94287109375,-0.015625,"(0.0, 0.0, 0.0, 0.0, 0.0, 0.0, 0.0, 0.0, 0.0)"
2022/11/28/23:10:21.433993,12388,1669698621,433429241,RL_myo,0.7016829700681444,0.5791203914410711,0.3985114919602396,0.11597056742601551,"(0.0, 0.0, 0.0, 0.0, 0.0, 0.0, 0.0, 0.0, 0.0)",-8.0,-1.4375,-2.9375,"(0.0, 0.0, 0.0, 0.0, 0.0, 0.0, 0.0, 0.0, 0.0)",-0.45703125,0.94287109375,-0.02587890625,"(0.0, 0.0, 0.0, 0.0, 0.0, 0.0, 0.0, 0.0, 0.0)"
2022/11/28/23:10:21.450908,12389,1669698621,450431823,RL_myo,0.7020412118287678,0.5786255162699286,0.39881214380883057,0.11523681167907439,"(0.0, 0.0, 0.0, 0.0, 0.0, 0.0, 0.0, 0.0, 0.0)",-4.0625,-2.875,-6.0625,"(0.0, 0.0, 0.0, 0.0, 0.0, 0.0, 0.0, 0.0, 0.0)",-0.423828125,0.92919921875,-0.02685546875,"(0.0, 0.0, 0.0, 0.0, 0.0, 0.0, 0.0, 0.0, 0.0)"
2022/11/28/23:10:21.473178,12390,1669698621,472834110,RL_myo,0.701747514412732,0.5786349862253369,0.39949008278953907,0.1146283232205889,"(0.0, 0.0, 0.0, 0.0, 0.0, 0.0, 0.0, 0.0, 0.0)",0.0,0.125,-4.8125,"(0.0, 0.0, 0.0, 0.0, 0.0, 0.0, 0.0, 0.0, 0.0)",-0.4453125,0.9443359375,-0.03564453125,"(0.0, 0.0, 0.0, 0.0, 0.0, 0.0, 0.0, 0.0, 0.0)"
2022/11/28/23:10:21.487238,12391,1669698621,486844062,RL_myo,0.701277460581648,0.579016275661721,0.3999887892063312,0.11383779824047119,"(0.0, 0.0, 0.0, 0.0, 0.0, 0.0, 0.0, 0.0, 0.0)",3.1875,-0.6875,-3.75,"(0.0, 0.0, 0.0, 0.0, 0.0, 0.0, 0.0, 0.0, 0.0)",-0.4423828125,0.93310546875,-0.01904296875,"(0.0, 0.0, 0.0, 0.0, 0.0, 0.0, 0.0, 0.0, 0.0)"
2022/11/28/23:10:21.517476,12392,1669698621,516708612,RL_myo,0.7009556832844384,0.5794298416422129,0.400162439882687,0.11310265422553677,"(0.0, 0.0, 0.0, 0.0, 0.0, 0.0, 0.0, 0.0, 0.0)",3.8125,-2.0,-2.375,"(0.0, 0.0, 0.0, 0.0, 0.0, 0.0, 0.0, 0.0, 0.0)",-0.43359375,0.90869140625,-0.00537109375,"(0.0, 0.0, 0.0, 0.0, 0.0, 0.0, 0.0, 0.0, 0.0)"
2022/11/28/23:10:21.533232,12393,1669698621,532927274,RL_myo,0.700620292977139,0.5797605456261428,0.40042421344572504,0.11255826975517026,"(0.0, 0.0, 0.0, 0.0, 0.0, 0.0, 0.0, 0.0, 0.0)",2.0625,-0.9375,-2.75,"(0.0, 0.0, 0.0, 0.0, 0.0, 0.0, 0.0, 0.0, 0.0)",-0.4169921875,0.89111328125,-0.02001953125,"(0.0, 0.0, 0.0, 0.0, 0.0, 0.0, 0.0, 0.0, 0.0)"
2022/11/28/23:10:21.547899,12394,1669698621,547481060,RL_myo,0.69973691405877,0.580591200848484,0.4008349890634982,0.11230948376379422,"(0.0, 0.0, 0.0, 0.0, 0.0, 0.0, 0.0, 0.0, 0.0)",5.875,1.5625,0.25,"(0.0, 0.0, 0.0, 0.0, 0.0, 0.0, 0.0, 0.0, 0.0)",-0.4267578125,0.892578125,-0.0185546875,"(0.0, 0.0, 0.0, 0.0, 0.0, 0.0, 0.0, 0.0, 0.0)"
2022/11/28/23:10:21.570580,12395,1669698621,570278167,RL_myo,0.6985392262954407,0.5816480502769359,0.4014586238504993,0.11206903350912524,"(0.0, 0.0, 0.0, 0.0, 0.0, 0.0, 0.0, 0.0, 0.0)",8.0,3.125,1.9375,"(0.0, 0.0, 0.0, 0.0, 0.0, 0.0, 0.0, 0.0, 0.0)",-0.44140625,0.869140625,-0.0146484375,"(0.0, 0.0, 0.0, 0.0, 0.0, 0.0, 0.0, 0.0, 0.0)"
2022/11/28/23:10:21.593619,12396,1669698621,592768907,RL_myo,0.6975056094036293,0.5826280775144519,0.40176616094291484,0.11231384626784614,"(0.0, 0.0, 0.0, 0.0, 0.0, 0.0, 0.0, 0.0, 0.0)",5.9375,3.4375,4.9375,"(0.0, 0.0, 0.0, 0.0, 0.0, 0.0, 0.0, 0.0, 0.0)",-0.4443359375,0.85546875,-0.0185546875,"(0.0, 0.0, 0.0, 0.0, 0.0, 0.0, 0.0, 0.0, 0.0)"
2022/11/28/23:10:21.614231,12397,1669698621,613675355,RL_myo,0.6965227479586292,0.5834774294747644,0.40206777151901596,0.11292323930623645,"(0.0, 0.0, 0.0, 0.0, 0.0, 0.0, 0.0, 0.0, 0.0)",4.5625,4.375,8.0,"(0.0, 0.0, 0.0, 0.0, 0.0, 0.0, 0.0, 0.0, 0.0)",-0.4658203125,0.857421875,-0.01708984375,"(0.0, 0.0, 0.0, 0.0, 0.0, 0.0, 0.0, 0.0, 0.0)"
2022/11/28/23:10:21.630831,12398,1669698621,630353212,RL_myo,0.6952500140828377,0.5845837914724615,0.40243927505251526,0.113718241987386,"(0.0, 0.0, 0.0, 0.0, 0.0, 0.0, 0.0, 0.0, 0.0)",6.0625,6.0,10.8125,"(0.0, 0.0, 0.0, 0.0, 0.0, 0.0, 0.0, 0.0, 0.0)",-0.482421875,0.83154296875,-0.0244140625,"(0.0, 0.0, 0.0, 0.0, 0.0, 0.0, 0.0, 0.0, 0.0)"
2022/11/28/23:10:21.653413,12399,1669698621,652861356,RL_myo,0.6945008198145087,0.5845697267853358,0.40328413750346803,0.11536355681573401,"(0.0, 0.0, 0.0, 0.0, 0.0, 0.0, 0.0, 0.0, 0.0)",-1.375,10.375,11.5,"(0.0, 0.0, 0.0, 0.0, 0.0, 0.0, 0.0, 0.0, 0.0)",-0.4921875,0.80810546875,-0.017578125,"(0.0, 0.0, 0.0, 0.0, 0.0, 0.0, 0.0, 0.0, 0.0)"
2022/11/28/23:10:21.674309,12400,1669698621,673735141,RL_myo,0.6934076324058509,0.5843302169913037,0.40487436846373315,0.11756189260683704,"(0.0, 0.0, 0.0, 0.0, 0.0, 0.0, 0.0, 0.0, 0.0)",-1.625,16.375,12.375,"(0.0, 0.0, 0.0, 0.0, 0.0, 0.0, 0.0, 0.0, 0.0)",-0.52685546875,0.82568359375,-0.01220703125,"(0.0, 0.0, 0.0, 0.0, 0.0, 0.0, 0.0, 0.0, 0.0)"
2022/11/28/23:10:21.690620,12401,1669698621,690197467,RL_myo,0.6918136278832994,0.584324321486397,0.4067624859903217,0.12042952954065198,"(0.0, 0.0, 0.0, 0.0, 0.0, 0.0, 0.0, 0.0, 0.0)",0.0,20.9375,19.4375,"(0.0, 0.0, 0.0, 0.0, 0.0, 0.0, 0.0, 0.0, 0.0)",-0.58056640625,0.794921875,-0.015625,"(0.0, 0.0, 0.0, 0.0, 0.0, 0.0, 0.0, 0.0, 0.0)"
2022/11/28/23:10:21.713190,12402,1669698621,712862968,RL_myo,0.6905764217465519,0.5832117473738999,0.4093163765451986,0.12421097916335806,"(0.0, 0.0, 0.0, 0.0, 0.0, 0.0, 0.0, 0.0, 0.0)",-5.125,27.5,23.875,"(0.0, 0.0, 0.0, 0.0, 0.0, 0.0, 0.0, 0.0, 0.0)",-0.6552734375,0.7666015625,0.02001953125,"(0.0, 0.0, 0.0, 0.0, 0.0, 0.0, 0.0, 0.0, 0.0)"
2022/11/28/23:10:21.734093,12403,1669698621,733606576,RL_myo,0.6894094681291354,0.581130371496901,0.4125470203705025,0.12964193982348682,"(0.0, 0.0, 0.0, 0.0, 0.0, 0.0, 0.0, 0.0, 0.0)",-14.0,36.25,31.125,"(0.0, 0.0, 0.0, 0.0, 0.0, 0.0, 0.0, 0.0, 0.0)",-0.7265625,0.7373046875,0.00048828125,"(0.0, 0.0, 0.0, 0.0, 0.0, 0.0, 0.0, 0.0, 0.0)"
2022/11/28/23:10:21.750671,12404,1669698621,750307083,RL_myo,0.6879039878812728,0.5784619426043321,0.41634366471500994,0.1372145665268058,"(0.0, 0.0, 0.0, 0.0, 0.0, 0.0, 0.0, 0.0, 0.0)",-20.0625,46.3125,41.0625,"(0.0, 0.0, 0.0, 0.0, 0.0, 0.0, 0.0, 0.0, 0.0)",-0.78076171875,0.72021484375,-0.01171875,"(0.0, 0.0, 0.0, 0.0, 0.0, 0.0, 0.0, 0.0, 0.0)"
2022/11/28/23:10:21.773046,12405,1669698621,772702217,RL_myo,0.6861338609169563,0.5755320856317037,0.4201890844722291,0.14637034058169746,"(0.0, 0.0, 0.0, 0.0, 0.0, 0.0, 0.0, 0.0, 0.0)",-23.5,53.125,49.0625,"(0.0, 0.0, 0.0, 0.0, 0.0, 0.0, 0.0, 0.0, 0.0)",-0.7890625,0.67138671875,0.005859375,"(0.0, 0.0, 0.0, 0.0, 0.0, 0.0, 0.0, 0.0, 0.0)"
2022/11/28/23:10:21.796467,12406,1669698621,796006679,RL_myo,0.6839856342471987,0.5730195550876942,0.42341677179839526,0.15662208972678135,"(0.0, 0.0, 0.0, 0.0, 0.0, 0.0, 0.0, 0.0, 0.0)",-20.125,56.3125,56.4375,"(0.0, 0.0, 0.0, 0.0, 0.0, 0.0, 0.0, 0.0, 0.0)",-0.759765625,0.63720703125,0.0537109375,"(0.0, 0.0, 0.0, 0.0, 0.0, 0.0, 0.0, 0.0, 0.0)"
2022/11/28/23:10:21.809563,12407,1669698621,809257268,RL_myo,0.6814419694366228,0.5707778445182605,0.42574863282160913,0.16907866851840248,"(0.0, 0.0, 0.0, 0.0, 0.0, 0.0, 0.0, 0.0, 0.0)",-21.5,61.5,68.875,"(0.0, 0.0, 0.0, 0.0, 0.0, 0.0, 0.0, 0.0, 0.0)",-0.75244140625,0.64990234375,0.09423828125,"(0.0, 0.0, 0.0, 0.0, 0.0, 0.0, 0.0, 0.0, 0.0)"
2022/11/28/23:10:21.833319,12408,1669698621,832825422,RL_myo,0.6785599084578161,0.5686303955377363,0.4268390249028972,0.1844569617126491,"(0.0, 0.0, 0.0, 0.0, 0.0, 0.0, 0.0, 0.0, 0.0)",-29.0625,66.8125,83.5,"(0.0, 0.0, 0.0, 0.0, 0.0, 0.0, 0.0, 0.0, 0.0)",-0.72900390625,0.69677734375,0.09033203125,"(0.0, 0.0, 0.0, 0.0, 0.0, 0.0, 0.0, 0.0, 0.0)"
2022/11/28/23:10:21.854365,12409,1669698621,853701829,RL_myo,0.6754557371604824,0.5668066126217458,0.4261121002274831,0.20228269591088366,"(0.0, 0.0, 0.0, 0.0, 0.0, 0.0, 0.0, 0.0, 0.0)",-29.9375,69.375,88.6875,"(0.0, 0.0, 0.0, 0.0, 0.0, 0.0, 0.0, 0.0, 0.0)",-0.560546875,0.759765625,0.1640625,"(0.0, 0.0, 0.0, 0.0, 0.0, 0.0, 0.0, 0.0, 0.0)"
2022/11/28/23:10:21.869855,12410,1669698621,869543313,RL_myo,0.6718715293831965,0.5660274999518835,0.4235592388834379,0.22090515715797113,"(0.0, 0.0, 0.0, 0.0, 0.0, 0.0, 0.0, 0.0, 0.0)",-23.6875,65.875,93.75,"(0.0, 0.0, 0.0, 0.0, 0.0, 0.0, 0.0, 0.0, 0.0)",-0.421875,0.75390625,0.2421875,"(0.0, 0.0, 0.0, 0.0, 0.0, 0.0, 0.0, 0.0, 0.0)"
2022/11/28/23:10:21.892158,12411,1669698621,891899824,RL_myo,0.6676550610319432,0.5659624909387619,0.42032115105741097,0.23927663551336784,"(0.0, 0.0, 0.0, 0.0, 0.0, 0.0, 0.0, 0.0, 0.0)",-20.0,62.375,94.4375,"(0.0, 0.0, 0.0, 0.0, 0.0, 0.0, 0.0, 0.0, 0.0)",-0.35107421875,0.74951171875,0.2294921875,"(0.0, 0.0, 0.0, 0.0, 0.0, 0.0, 0.0, 0.0, 0.0)"
2022/11/28/23:10:21.914424,12412,1669698621,913727045,RL_myo,0.6621560507540314,0.5675448893723252,0.4157397549489037,0.25807483246571206,"(0.0, 0.0, 0.0, 0.0, 0.0, 0.0, 0.0, 0.0, 0.0)",-12.9375,58.5,96.75,"(0.0, 0.0, 0.0, 0.0, 0.0, 0.0, 0.0, 0.0, 0.0)",-0.21240234375,0.8466796875,0.22802734375,"(0.0, 0.0, 0.0, 0.0, 0.0, 0.0, 0.0, 0.0, 0.0)"
2022/11/28/23:10:21.929664,12413,1669698621,929315805,RL_myo,0.6537697340338818,0.5719798503997299,0.4113909072344658,0.27601033865196656,"(0.0, 0.0, 0.0, 0.0, 0.0, 0.0, 0.0, 0.0, 0.0)",-1.1875,56.3125,102.125,"(0.0, 0.0, 0.0, 0.0, 0.0, 0.0, 0.0, 0.0, 0.0)",-0.0341796875,0.94384765625,0.2431640625,"(0.0, 0.0, 0.0, 0.0, 0.0, 0.0, 0.0, 0.0, 0.0)"
2022/11/28/23:10:21.952997,12414,1669698621,952561378,RL_myo,0.6479183867266156,0.5750390128451668,0.40236250638736226,0.2960343076424009,"(0.0, 0.0, 0.0, 0.0, 0.0, 0.0, 0.0, 0.0, 0.0)",-13.0625,44.6875,99.8125,"(0.0, 0.0, 0.0, 0.0, 0.0, 0.0, 0.0, 0.0, 0.0)",0.138671875,0.908203125,0.27294921875,"(0.0, 0.0, 0.0, 0.0, 0.0, 0.0, 0.0, 0.0, 0.0)"
2022/11/28/23:10:21.974361,12415,1669698621,973895788,RL_myo,0.6418297853763976,0.5792643521846897,0.392910920443925,0.3132544420876531,"(0.0, 0.0, 0.0, 0.0, 0.0, 0.0, 0.0, 0.0, 0.0)",-11.875,30.3125,90.5,"(0.0, 0.0, 0.0, 0.0, 0.0, 0.0, 0.0, 0.0, 0.0)",0.22412109375,0.91162109375,0.13818359375,"(0.0, 0.0, 0.0, 0.0, 0.0, 0.0, 0.0, 0.0, 0.0)"
2022/11/28/23:10:21.989619,12416,1669698621,989283084,RL_myo,0.634192780062933,0.585544883459453,0.38295721868285293,0.3290599881924227,"(0.0, 0.0, 0.0, 0.0, 0.0, 0.0, 0.0, 0.0, 0.0)",-3.375,22.3125,92.375,"(0.0, 0.0, 0.0, 0.0, 0.0, 0.0, 0.0, 0.0, 0.0)",0.27734375,1.0029296875,0.04931640625,"(0.0, 0.0, 0.0, 0.0, 0.0, 0.0, 0.0, 0.0, 0.0)"
2022/11/28/23:10:22.013511,12417,1669698622,12688159,RL_myo,0.625818975423478,0.5930417599936129,0.37110888233441397,0.3448626949324735,"(0.0, 0.0, 0.0, 0.0, 0.0, 0.0, 0.0, 0.0, 0.0)",-2.3125,14.9375,95.9375,"(0.0, 0.0, 0.0, 0.0, 0.0, 0.0, 0.0, 0.0, 0.0)",0.42138671875,0.98876953125,0.01220703125,"(0.0, 0.0, 0.0, 0.0, 0.0, 0.0, 0.0, 0.0, 0.0)"
2022/11/28/23:10:22.033954,12418,1669698622,33496141,RL_myo,0.6178410732205781,0.600017560734863,0.35830143250393137,0.3603767729988434,"(0.0, 0.0, 0.0, 0.0, 0.0, 0.0, 0.0, 0.0, 0.0)",-6.9375,11.0,87.25,"(0.0, 0.0, 0.0, 0.0, 0.0, 0.0, 0.0, 0.0, 0.0)",0.59326171875,1.02587890625,0.01220703125,"(0.0, 0.0, 0.0, 0.0, 0.0, 0.0, 0.0, 0.0, 0.0)"
2022/11/28/23:10:22.050008,12419,1669698622,49583673,RL_myo,0.6094560297674271,0.6069535062601197,0.3454092811671377,0.375317488937397,"(0.0, 0.0, 0.0, 0.0, 0.0, 0.0, 0.0, 0.0, 0.0)",-7.25,9.625,79.9375,"(0.0, 0.0, 0.0, 0.0, 0.0, 0.0, 0.0, 0.0, 0.0)",0.72509765625,0.98291015625,-0.01904296875,"(0.0, 0.0, 0.0, 0.0, 0.0, 0.0, 0.0, 0.0, 0.0)"
2022/11/28/23:10:22.073323,12420,1669698622,72987794,RL_myo,0.5997775673295861,0.6143050516593684,0.3357191756882479,0.38754200844448833,"(0.0, 0.0, 0.0, 0.0, 0.0, 0.0, 0.0, 0.0, 0.0)",4.5,13.5,67.8125,"(0.0, 0.0, 0.0, 0.0, 0.0, 0.0, 0.0, 0.0, 0.0)",0.6982421875,0.99560546875,-0.12109375,"(0.0, 0.0, 0.0, 0.0, 0.0, 0.0, 0.0, 0.0, 0.0)"
2022/11/28/23:10:22.095664,12421,1669698622,95314979,RL_myo,0.5887226665128785,0.6219279677656526,0.3287568980651492,0.3981584192497156,"(0.0, 0.0, 0.0, 0.0, 0.0, 0.0, 0.0, 0.0, 0.0)",16.5625,19.4375,66.5,"(0.0, 0.0, 0.0, 0.0, 0.0, 0.0, 0.0, 0.0, 0.0)",0.5966796875,1.05615234375,-0.162109375,"(0.0, 0.0, 0.0, 0.0, 0.0, 0.0, 0.0, 0.0, 0.0)"
2022/11/28/23:10:22.109478,12422,1669698622,109196901,RL_myo,0.5797993753743064,0.6272258533894486,0.3222192759870474,0.4081606930337916,"(0.0, 0.0, 0.0, 0.0, 0.0, 0.0, 0.0, 0.0, 0.0)",2.375,20.0625,59.4375,"(0.0, 0.0, 0.0, 0.0, 0.0, 0.0, 0.0, 0.0, 0.0)",0.54443359375,1.0380859375,-0.1875,"(0.0, 0.0, 0.0, 0.0, 0.0, 0.0, 0.0, 0.0, 0.0)"
2022/11/28/23:10:22.132863,12423,1669698622,132403373,RL_myo,0.5740784279251753,0.6296245597074092,0.3158194349904154,0.41745054424032685,"(0.0, 0.0, 0.0, 0.0, 0.0, 0.0, 0.0, 0.0, 0.0)",-15.4375,18.9375,50.3125,"(0.0, 0.0, 0.0, 0.0, 0.0, 0.0, 0.0, 0.0, 0.0)",0.47705078125,1.04443359375,-0.16064453125,"(0.0, 0.0, 0.0, 0.0, 0.0, 0.0, 0.0, 0.0, 0.0)"
2022/11/28/23:10:22.156239,12424,1669698622,155914545,RL_myo,0.5699819879132313,0.6310209671286127,0.31056632624786046,0.4248312953390544,"(0.0, 0.0, 0.0, 0.0, 0.0, 0.0, 0.0, 0.0, 0.0)",-16.125,15.375,39.5625,"(0.0, 0.0, 0.0, 0.0, 0.0, 0.0, 0.0, 0.0, 0.0)",0.4189453125,1.00439453125,-0.12646484375,"(0.0, 0.0, 0.0, 0.0, 0.0, 0.0, 0.0, 0.0, 0.0)"
2022/11/28/23:10:22.176499,12425,1669698622,176001310,RL_myo,0.5660811192441267,0.6329805053441443,0.3073953543792778,0.42941348650878064,"(0.0, 0.0, 0.0, 0.0, 0.0, 0.0, 0.0, 0.0, 0.0)",-2.875,9.875,28.625,"(0.0, 0.0, 0.0, 0.0, 0.0, 0.0, 0.0, 0.0, 0.0)",0.3466796875,0.9580078125,-0.09765625,"(0.0, 0.0, 0.0, 0.0, 0.0, 0.0, 0.0, 0.0, 0.0)"
2022/11/28/23:10:22.192861,12426,1669698622,192530632,RL_myo,0.5621766667136231,0.6357906797490878,0.3055042580783587,0.4317345888887575,"(0.0, 0.0, 0.0, 0.0, 0.0, 0.0, 0.0, 0.0, 0.0)",8.3125,3.5,23.125,"(0.0, 0.0, 0.0, 0.0, 0.0, 0.0, 0.0, 0.0, 0.0)",0.291015625,0.99365234375,-0.08642578125,"(0.0, 0.0, 0.0, 0.0, 0.0, 0.0, 0.0, 0.0, 0.0)"
2022/11/28/23:10:22.215447,12427,1669698622,215021133,RL_myo,0.5592921617413019,0.6382144323002349,0.3040308040634535,0.4329432831202722,"(0.0, 0.0, 0.0, 0.0, 0.0, 0.0, 0.0, 0.0, 0.0)",7.4375,0.0,20.625,"(0.0, 0.0, 0.0, 0.0, 0.0, 0.0, 0.0, 0.0, 0.0)",0.22705078125,1.04541015625,-0.072265625,"(0.0, 0.0, 0.0, 0.0, 0.0, 0.0, 0.0, 0.0, 0.0)"
2022/11/28/23:10:22.237165,12428,1669698622,236184358,RL_myo,0.5584881223611727,0.6390569006690141,0.30182773388808737,0.43427792246991737,"(0.0, 0.0, 0.0, 0.0, 0.0, 0.0, 0.0, 0.0, 0.0)",-6.3125,-2.25,16.875,"(0.0, 0.0, 0.0, 0.0, 0.0, 0.0, 0.0, 0.0, 0.0)",0.21337890625,1.03369140625,-0.05810546875,"(0.0, 0.0, 0.0, 0.0, 0.0, 0.0, 0.0, 0.0, 0.0)"
2022/11/28/23:10:22.253844,12429,1669698622,253463268,RL_myo,0.5597901781852085,0.6384086221392536,0.2987256713595475,0.43569755663352067,"(0.0, 0.0, 0.0, 0.0, 0.0, 0.0, 0.0, 0.0, 0.0)",-18.1875,-5.0625,12.75,"(0.0, 0.0, 0.0, 0.0, 0.0, 0.0, 0.0, 0.0, 0.0)",0.2080078125,0.982421875,-0.01171875,"(0.0, 0.0, 0.0, 0.0, 0.0, 0.0, 0.0, 0.0, 0.0)"
2022/11/28/23:10:22.275924,12430,1669698622,275371789,RL_myo,0.5603230124577955,0.6388781014592315,0.2968247069261721,0.43562367537159985,"(0.0, 0.0, 0.0, 0.0, 0.0, 0.0, 0.0, 0.0, 0.0)",-2.75,-9.0,9.0625,"(0.0, 0.0, 0.0, 0.0, 0.0, 0.0, 0.0, 0.0, 0.0)",0.17431640625,0.9609375,0.04150390625,"(0.0, 0.0, 0.0, 0.0, 0.0, 0.0, 0.0, 0.0, 0.0)"
2022/11/28/23:10:22.296750,12431,1669698622,296092748,RL_myo,0.5593631676674279,0.6410336083416988,0.2966504795791902,0.4338055469895689,"(0.0, 0.0, 0.0, 0.0, 0.0, 0.0, 0.0, 0.0, 0.0)",15.9375,-11.875,7.0625,"(0.0, 0.0, 0.0, 0.0, 0.0, 0.0, 0.0, 0.0, 0.0)",0.15283203125,1.03759765625,0.0439453125,"(0.0, 0.0, 0.0, 0.0, 0.0, 0.0, 0.0, 0.0, 0.0)"
2022/11/28/23:10:22.313565,12432,1669698622,312819719,RL_myo,0.5597839536521838,0.6413313707363968,0.29664704118957724,0.43282390310191204,"(0.0, 0.0, 0.0, 0.0, 0.0, 0.0, 0.0, 0.0, 0.0)",5.6875,-6.0625,0.5,"(0.0, 0.0, 0.0, 0.0, 0.0, 0.0, 0.0, 0.0, 0.0)",0.1796875,1.0595703125,0.0712890625,"(0.0, 0.0, 0.0, 0.0, 0.0, 0.0, 0.0, 0.0, 0.0)"
2022/11/28/23:10:22.335663,12433,1669698622,335271120,RL_myo,0.5619412435544318,0.6391578059155393,0.2971464233785546,0.4329010753082804,"(0.0, 0.0, 0.0, 0.0, 0.0, 0.0, 0.0, 0.0, 0.0)",-9.1875,2.5625,-5.875,"(0.0, 0.0, 0.0, 0.0, 0.0, 0.0, 0.0, 0.0, 0.0)",0.166015625,1.05517578125,0.0732421875,"(0.0, 0.0, 0.0, 0.0, 0.0, 0.0, 0.0, 0.0, 0.0)"
2022/11/28/23:10:22.356601,12434,1669698622,355956077,RL_myo,0.5634736440045969,0.6372117180981461,0.2978822860732784,0.433272226751666,"(0.0, 0.0, 0.0, 0.0, 0.0, 0.0, 0.0, 0.0, 0.0)",-7.8125,5.1875,-5.125,"(0.0, 0.0, 0.0, 0.0, 0.0, 0.0, 0.0, 0.0, 0.0)",0.1669921875,0.9833984375,0.05078125,"(0.0, 0.0, 0.0, 0.0, 0.0, 0.0, 0.0, 0.0, 0.0)"
2022/11/28/23:10:22.374145,12435,1669698622,373066663,RL_myo,0.5644142054949771,0.6354619112585926,0.2989008721000219,0.4339159280700543,"(0.0, 0.0, 0.0, 0.0, 0.0, 0.0, 0.0, 0.0, 0.0)",-6.625,8.375,-5.5,"(0.0, 0.0, 0.0, 0.0, 0.0, 0.0, 0.0, 0.0, 0.0)",0.18310546875,0.93505859375,0.02734375,"(0.0, 0.0, 0.0, 0.0, 0.0, 0.0, 0.0, 0.0, 0.0)"
2022/11/28/23:10:22.395797,12436,1669698622,395188331,RL_myo,0.564673626927567,0.6343193526139094,0.3003738966717714,0.4342328593625242,"(0.0, 0.0, 0.0, 0.0, 0.0, 0.0, 0.0, 0.0, 0.0)",-2.5,8.25,-5.375,"(0.0, 0.0, 0.0, 0.0, 0.0, 0.0, 0.0, 0.0, 0.0)",0.18115234375,0.9521484375,0.0009765625,"(0.0, 0.0, 0.0, 0.0, 0.0, 0.0, 0.0, 0.0, 0.0)"
2022/11/28/23:10:22.409808,12437,1669698622,409451961,RL_myo,0.5640570395919956,0.6340682314989342,0.3017134451578005,0.434472244109493,"(0.0, 0.0, 0.0, 0.0, 0.0, 0.0, 0.0, 0.0, 0.0)",3.0,7.0,-1.6875,"(0.0, 0.0, 0.0, 0.0, 0.0, 0.0, 0.0, 0.0, 0.0)",0.1884765625,0.962890625,-0.00537109375,"(0.0, 0.0, 0.0, 0.0, 0.0, 0.0, 0.0, 0.0, 0.0)"
2022/11/28/23:10:22.433692,12438,1669698622,433269262,RL_myo,0.5634560843066109,0.6340788434380971,0.30245096931418664,0.43472367375492177,"(0.0, 0.0, 0.0, 0.0, 0.0, 0.0, 0.0, 0.0, 0.0)",2.8125,4.375,-1.125,"(0.0, 0.0, 0.0, 0.0, 0.0, 0.0, 0.0, 0.0, 0.0)",0.21435546875,0.94482421875,0.0,"(0.0, 0.0, 0.0, 0.0, 0.0, 0.0, 0.0, 0.0, 0.0)"
2022/11/28/23:10:22.456061,12439,1669698622,455229282,RL_myo,0.5632143298743187,0.6340205098520157,0.30275745921498004,0.43490864856990585,"(0.0, 0.0, 0.0, 0.0, 0.0, 0.0, 0.0, 0.0, 0.0)",-0.625,2.75,-0.6875,"(0.0, 0.0, 0.0, 0.0, 0.0, 0.0, 0.0, 0.0, 0.0)",0.216796875,0.96142578125,-0.01171875,"(0.0, 0.0, 0.0, 0.0, 0.0, 0.0, 0.0, 0.0, 0.0)"
2022/11/28/23:10:22.469860,12440,1669698622,469451427,RL_myo,0.5630180798826407,0.6340667621228179,0.3026893601624041,0.4351426595276827,"(0.0, 0.0, 0.0, 0.0, 0.0, 0.0, 0.0, 0.0, 0.0)",-0.75,0.9375,1.0625,"(0.0, 0.0, 0.0, 0.0, 0.0, 0.0, 0.0, 0.0, 0.0)",0.212890625,0.95361328125,-0.00439453125,"(0.0, 0.0, 0.0, 0.0, 0.0, 0.0, 0.0, 0.0, 0.0)"
2022/11/28/23:10:22.493308,12441,1669698622,492755889,RL_myo,0.5627770557134186,0.634314442838812,0.30226377222265177,0.4353892341001969,"(0.0, 0.0, 0.0, 0.0, 0.0, 0.0, 0.0, 0.0, 0.0)",-0.0625,-0.25,1.625,"(0.0, 0.0, 0.0, 0.0, 0.0, 0.0, 0.0, 0.0, 0.0)",0.2294921875,0.9365234375,0.00830078125,"(0.0, 0.0, 0.0, 0.0, 0.0, 0.0, 0.0, 0.0, 0.0)"
2022/11/28/23:10:22.516359,12442,1669698622,515552043,RL_myo,0.562424807454039,0.6346354160082096,0.30196608665890284,0.4355831805938813,"(0.0, 0.0, 0.0, 0.0, 0.0, 0.0, 0.0, 0.0, 0.0)",2.25,-0.8125,1.25,"(0.0, 0.0, 0.0, 0.0, 0.0, 0.0, 0.0, 0.0, 0.0)",0.2314453125,0.9384765625,0.0263671875,"(0.0, 0.0, 0.0, 0.0, 0.0, 0.0, 0.0, 0.0, 0.0)"
2022/11/28/23:10:22.536414,12443,1669698622,535885572,RL_myo,0.5621104758859471,0.6348082255634542,0.3020222211623049,0.43569818404537847,"(0.0, 0.0, 0.0, 0.0, 0.0, 0.0, 0.0, 0.0, 0.0)",2.5,0.5625,1.9375,"(0.0, 0.0, 0.0, 0.0, 0.0, 0.0, 0.0, 0.0, 0.0)",0.19873046875,0.9521484375,0.02490234375,"(0.0, 0.0, 0.0, 0.0, 0.0, 0.0, 0.0, 0.0, 0.0)"
2022/11/28/23:10:22.552999,12444,1669698622,552489280,RL_myo,0.5619912858706753,0.6348114883300775,0.30214585261864263,0.43576146299888685,"(0.0, 0.0, 0.0, 0.0, 0.0, 0.0, 0.0, 0.0, 0.0)",1.0,0.375,1.6875,"(0.0, 0.0, 0.0, 0.0, 0.0, 0.0, 0.0, 0.0, 0.0)",0.19091796875,0.974609375,0.01708984375,"(0.0, 0.0, 0.0, 0.0, 0.0, 0.0, 0.0, 0.0, 0.0)"
2022/11/28/23:10:22.575776,12445,1669698622,575237751,RL_myo,0.5621624334625176,0.6347369322015983,0.3022614951689888,0.4355690689672666,"(0.0, 0.0, 0.0, 0.0, 0.0, 0.0, 0.0, 0.0, 0.0)",1.0625,-0.6875,-0.5,"(0.0, 0.0, 0.0, 0.0, 0.0, 0.0, 0.0, 0.0, 0.0)",0.1943359375,0.97021484375,0.02783203125,"(0.0, 0.0, 0.0, 0.0, 0.0, 0.0, 0.0, 0.0, 0.0)"
2022/11/28/23:10:22.596440,12446,1669698622,596026182,RL_myo,0.5625321756481018,0.6345577797349897,0.30238545986986715,0.43526659554542246,"(0.0, 0.0, 0.0, 0.0, 0.0, 0.0, 0.0, 0.0, 0.0)",-0.25,-0.9375,-1.0625,"(0.0, 0.0, 0.0, 0.0, 0.0, 0.0, 0.0, 0.0, 0.0)",0.18798828125,0.9794921875,0.02734375,"(0.0, 0.0, 0.0, 0.0, 0.0, 0.0, 0.0, 0.0, 0.0)"
2022/11/28/23:10:22.614059,12447,1669698622,612736940,RL_myo,0.5628913726081727,0.6343667355797807,0.3025647944067135,0.43495596629861616,"(0.0, 0.0, 0.0, 0.0, 0.0, 0.0, 0.0, 0.0, 0.0)",-1.4375,-0.875,-0.375,"(0.0, 0.0, 0.0, 0.0, 0.0, 0.0, 0.0, 0.0, 0.0)",0.18359375,1.02294921875,0.005859375,"(0.0, 0.0, 0.0, 0.0, 0.0, 0.0, 0.0, 0.0, 0.0)"
2022/11/28/23:10:22.635231,12448,1669698622,634863615,RL_myo,0.5639581165213061,0.6337890598377228,0.30245832529094835,0.43449008262784466,"(0.0, 0.0, 0.0, 0.0, 0.0, 0.0, 0.0, 0.0, 0.0)",-7.9375,-1.875,-3.3125,"(0.0, 0.0, 0.0, 0.0, 0.0, 0.0, 0.0, 0.0, 0.0)",0.21240234375,1.08984375,-0.0244140625,"(0.0, 0.0, 0.0, 0.0, 0.0, 0.0, 0.0, 0.0, 0.0)"
2022/11/28/23:10:22.656915,12449,1669698622,656099319,RL_myo,0.566427399992292,0.6325309424698408,0.302440492129505,0.4331216412010026,"(0.0, 0.0, 0.0, 0.0, 0.0, 0.0, 0.0, 0.0, 0.0)",-13.6875,-5.4375,-14.75,"(0.0, 0.0, 0.0, 0.0, 0.0, 0.0, 0.0, 0.0, 0.0)",0.27099609375,1.1708984375,-0.0244140625,"(0.0, 0.0, 0.0, 0.0, 0.0, 0.0, 0.0, 0.0, 0.0)"
2022/11/28/23:10:22.671905,12450,1669698622,671633481,RL_myo,0.5732046993749188,0.6286879356364246,0.30299096237856427,0.4293999638060434,"(0.0, 0.0, 0.0, 0.0, 0.0, 0.0, 0.0, 0.0, 0.0)",-32.6875,-13.125,-46.5,"(0.0, 0.0, 0.0, 0.0, 0.0, 0.0, 0.0, 0.0, 0.0)",0.384765625,1.29296875,-0.0126953125,"(0.0, 0.0, 0.0, 0.0, 0.0, 0.0, 0.0, 0.0, 0.0)"
2022/11/28/23:10:22.695529,12451,1669698622,695071220,RL_myo,0.5822457574275862,0.6234467099659676,0.30616885619632794,0.42256917692328116,"(0.0, 0.0, 0.0, 0.0, 0.0, 0.0, 0.0, 0.0, 0.0)",-36.1875,-15.25,-80.75,"(0.0, 0.0, 0.0, 0.0, 0.0, 0.0, 0.0, 0.0, 0.0)",0.453125,1.36181640625,-0.03955078125,"(0.0, 0.0, 0.0, 0.0, 0.0, 0.0, 0.0, 0.0, 0.0)"
2022/11/28/23:10:22.716857,12452,1669698622,716438770,RL_myo,0.5938402981165275,0.6158750753413262,0.3133699342717908,0.41212968371701036,"(0.0, 0.0, 0.0, 0.0, 0.0, 0.0, 0.0, 0.0, 0.0)",-34.6875,-14.75,-106.6875,"(0.0, 0.0, 0.0, 0.0, 0.0, 0.0, 0.0, 0.0, 0.0)",0.4755859375,1.46142578125,-0.1494140625,"(0.0, 0.0, 0.0, 0.0, 0.0, 0.0, 0.0, 0.0, 0.0)"
2022/11/28/23:10:22.732205,12453,1669698622,731768846,RL_myo,0.6065427410247607,0.6070310515740409,0.3241771659034421,0.3981562141194036,"(0.0, 0.0, 0.0, 0.0, 0.0, 0.0, 0.0, 0.0, 0.0)",-30.3125,-13.5,-138.8125,"(0.0, 0.0, 0.0, 0.0, 0.0, 0.0, 0.0, 0.0, 0.0)",0.5634765625,1.60498046875,-0.26904296875,"(0.0, 0.0, 0.0, 0.0, 0.0, 0.0, 0.0, 0.0, 0.0)"
2022/11/28/23:10:22.755590,12454,1669698622,755314350,RL_myo,0.618142927434697,0.5986714557400522,0.3395604922799664,0.37972421759368524,"(0.0, 0.0, 0.0, 0.0, 0.0, 0.0, 0.0, 0.0, 0.0)",-6.25,-12.25,-169.1875,"(0.0, 0.0, 0.0, 0.0, 0.0, 0.0, 0.0, 0.0, 0.0)",0.60888671875,1.54443359375,-0.28173828125,"(0.0, 0.0, 0.0, 0.0, 0.0, 0.0, 0.0, 0.0, 0.0)"
2022/11/28/23:10:22.776380,12455,1669698622,775959253,RL_myo,0.6281565607393684,0.5925705851382557,0.35842341120023047,0.3547000072351054,"(0.0, 0.0, 0.0, 0.0, 0.0, 0.0, 0.0, 0.0, 0.0)",28.75,-24.9375,-197.625,"(0.0, 0.0, 0.0, 0.0, 0.0, 0.0, 0.0, 0.0, 0.0)",0.556640625,1.43359375,-0.23291015625,"(0.0, 0.0, 0.0, 0.0, 0.0, 0.0, 0.0, 0.0, 0.0)"
2022/11/28/23:10:22.792221,12456,1669698622,791771173,RL_myo,0.638095737837945,0.5877390338283501,0.37947591373048634,0.3215504445121766,"(0.0, 0.0, 0.0, 0.0, 0.0, 0.0, 0.0, 0.0, 0.0)",55.6875,-47.25,-232.75,"(0.0, 0.0, 0.0, 0.0, 0.0, 0.0, 0.0, 0.0, 0.0)",0.529296875,1.3984375,-0.20166015625,"(0.0, 0.0, 0.0, 0.0, 0.0, 0.0, 0.0, 0.0, 0.0)"
2022/11/28/23:10:22.815708,12457,1669698622,815297365,RL_myo,0.6490272133039027,0.5824337129075368,0.3999272361108972,0.28212205209166163,"(0.0, 0.0, 0.0, 0.0, 0.0, 0.0, 0.0, 0.0, 0.0)",63.6875,-72.1875,-258.4375,"(0.0, 0.0, 0.0, 0.0, 0.0, 0.0, 0.0, 0.0, 0.0)",0.4951171875,1.45849609375,-0.21826171875,"(0.0, 0.0, 0.0, 0.0, 0.0, 0.0, 0.0, 0.0, 0.0)"
2022/11/28/23:10:22.836638,12458,1669698622,835907697,RL_myo,0.6589072142139311,0.5785809618836362,0.418050533594369,0.23731646585120555,"(0.0, 0.0, 0.0, 0.0, 0.0, 0.0, 0.0, 0.0, 0.0)",82.8125,-99.5,-265.625,"(0.0, 0.0, 0.0, 0.0, 0.0, 0.0, 0.0, 0.0, 0.0)",0.390625,1.43994140625,-0.1611328125,"(0.0, 0.0, 0.0, 0.0, 0.0, 0.0, 0.0, 0.0, 0.0)"
2022/11/28/23:10:22.852468,12459,1669698622,852133750,RL_myo,0.6669085350025916,0.5775479185607287,0.43294730356703115,0.18500821614432136,"(0.0, 0.0, 0.0, 0.0, 0.0, 0.0, 0.0, 0.0, 0.0)",115.8125,-135.1875,-273.5625,"(0.0, 0.0, 0.0, 0.0, 0.0, 0.0, 0.0, 0.0, 0.0)",0.314453125,1.24658203125,-0.0498046875,"(0.0, 0.0, 0.0, 0.0, 0.0, 0.0, 0.0, 0.0, 0.0)"
2022/11/28/23:10:22.875808,12460,1669698622,875360012,RL_myo,0.6733106105408855,0.578396459567168,0.4430751266355079,0.12567732273625992,"(0.0, 0.0, 0.0, 0.0, 0.0, 0.0, 0.0, 0.0, 0.0)",143.0,-174.25,-277.6875,"(0.0, 0.0, 0.0, 0.0, 0.0, 0.0, 0.0, 0.0, 0.0)",0.2890625,0.99951171875,0.09423828125,"(0.0, 0.0, 0.0, 0.0, 0.0, 0.0, 0.0, 0.0, 0.0)"
2022/11/28/23:10:22.897236,12461,1669698622,896681308,RL_myo,0.6765362200593877,0.5816233887536906,0.4477077926863596,0.05975540954873156,"(0.0, 0.0, 0.0, 0.0, 0.0, 0.0, 0.0, 0.0, 0.0)",177.1875,-210.375,-276.25,"(0.0, 0.0, 0.0, 0.0, 0.0, 0.0, 0.0, 0.0, 0.0)",0.28173828125,0.86328125,0.19140625,"(0.0, 0.0, 0.0, 0.0, 0.0, 0.0, 0.0, 0.0, 0.0)"
2022/11/28/23:10:22.912342,12462,1669698622,911893606,RL_myo,0.6776162864444883,0.5853833156474771,0.4450500265261476,-0.00964448007010442,"(0.0, 0.0, 0.0, 0.0, 0.0, 0.0, 0.0, 0.0, 0.0)",194.125,-243.25,-262.8125,"(0.0, 0.0, 0.0, 0.0, 0.0, 0.0, 0.0, 0.0, 0.0)",0.263671875,0.76123046875,0.28564453125,"(0.0, 0.0, 0.0, 0.0, 0.0, 0.0, 0.0, 0.0, 0.0)"
2022/11/28/23:10:22.935327,12463,1669698622,934987545,RL_myo,0.6766669930310004,0.588894384698096,0.43465142137594753,-0.08002078548291915,"(0.0, 0.0, 0.0, 0.0, 0.0, 0.0, 0.0, 0.0, 0.0)",202.6875,-270.75,-239.5,"(0.0, 0.0, 0.0, 0.0, 0.0, 0.0, 0.0, 0.0, 0.0)",0.2353515625,0.58837890625,0.3154296875,"(0.0, 0.0, 0.0, 0.0, 0.0, 0.0, 0.0, 0.0, 0.0)"
2022/11/28/23:10:22.956627,12464,1669698622,956015586,RL_myo,0.6728724908075941,0.5915100969173072,0.41779863929408395,-0.1510056732817478,"(0.0, 0.0, 0.0, 0.0, 0.0, 0.0, 0.0, 0.0, 0.0)",213.375,-290.6875,-223.1875,"(0.0, 0.0, 0.0, 0.0, 0.0, 0.0, 0.0, 0.0, 0.0)",0.2412109375,0.50830078125,0.369140625,"(0.0, 0.0, 0.0, 0.0, 0.0, 0.0, 0.0, 0.0, 0.0)"
2022/11/28/23:10:22.972634,12465,1669698622,972188711,RL_myo,0.6665587185157621,0.5924559452302186,0.39401433406769637,-0.2223693600323188,"(0.0, 0.0, 0.0, 0.0, 0.0, 0.0, 0.0, 0.0, 0.0)",222.3125,-312.5,-206.1875,"(0.0, 0.0, 0.0, 0.0, 0.0, 0.0, 0.0, 0.0, 0.0)",0.2841796875,0.40380859375,0.43701171875,"(0.0, 0.0, 0.0, 0.0, 0.0, 0.0, 0.0, 0.0, 0.0)"
2022/11/28/23:10:22.996268,12466,1669698622,995911359,RL_myo,0.6563921265694279,0.5929136244648896,0.36329235050597314,-0.2926114798934199,"(0.0, 0.0, 0.0, 0.0, 0.0, 0.0, 0.0, 0.0, 0.0)",239.125,-326.8125,-182.875,"(0.0, 0.0, 0.0, 0.0, 0.0, 0.0, 0.0, 0.0, 0.0)",0.21728515625,0.32275390625,0.4345703125,"(0.0, 0.0, 0.0, 0.0, 0.0, 0.0, 0.0, 0.0, 0.0)"
2022/11/28/23:10:23.018528,12467,1669698623,18177747,RL_myo,0.6432209097389517,0.5932305961048465,0.32411302246288043,-0.35957623640844233,"(0.0, 0.0, 0.0, 0.0, 0.0, 0.0, 0.0, 0.0, 0.0)",255.8125,-341.125,-145.1875,"(0.0, 0.0, 0.0, 0.0, 0.0, 0.0, 0.0, 0.0, 0.0)",0.11279296875,0.291015625,0.4326171875,"(0.0, 0.0, 0.0, 0.0, 0.0, 0.0, 0.0, 0.0, 0.0)"
2022/11/28/23:10:23.032681,12468,1669698623,32354831,RL_myo,0.6284485156882327,0.5930464042761139,0.275159859044537,-0.4214682401735865,"(0.0, 0.0, 0.0, 0.0, 0.0, 0.0, 0.0, 0.0, 0.0)",269.4375,-358.625,-97.5625,"(0.0, 0.0, 0.0, 0.0, 0.0, 0.0, 0.0, 0.0, 0.0)",0.068359375,0.31005859375,0.42578125,"(0.0, 0.0, 0.0, 0.0, 0.0, 0.0, 0.0, 0.0, 0.0)"
2022/11/28/23:10:23.055697,12469,1669698623,55199861,RL_myo,0.613246031599694,0.5901737712289681,0.21741637947229125,-0.477864355667762,"(0.0, 0.0, 0.0, 0.0, 0.0, 0.0, 0.0, 0.0, 0.0)",274.625,-375.375,-54.3125,"(0.0, 0.0, 0.0, 0.0, 0.0, 0.0, 0.0, 0.0, 0.0)",0.17431640625,0.35986328125,0.5341796875,"(0.0, 0.0, 0.0, 0.0, 0.0, 0.0, 0.0, 0.0, 0.0)"
2022/11/28/23:10:23.078207,12470,1669698623,77873468,RL_myo,0.597015383664577,0.5844414986799228,0.15137492602884683,-0.5282862841853506,"(0.0, 0.0, 0.0, 0.0, 0.0, 0.0, 0.0, 0.0, 0.0)",285.0625,-387.375,-12.0,"(0.0, 0.0, 0.0, 0.0, 0.0, 0.0, 0.0, 0.0, 0.0)",0.33447265625,0.31103515625,0.72314453125,"(0.0, 0.0, 0.0, 0.0, 0.0, 0.0, 0.0, 0.0, 0.0)"
2022/11/28/23:10:23.099268,12471,1669698623,98594188,RL_myo,0.5842223901849344,0.5734803153131679,0.08019935444034725,-0.5686585885241364,"(0.0, 0.0, 0.0, 0.0, 0.0, 0.0, 0.0, 0.0, 0.0)",262.9375,-390.9375,47.5625,"(0.0, 0.0, 0.0, 0.0, 0.0, 0.0, 0.0, 0.0, 0.0)",0.236328125,0.2548828125,0.748046875,"(0.0, 0.0, 0.0, 0.0, 0.0, 0.0, 0.0, 0.0, 0.0)"
2022/11/28/23:10:23.115796,12472,1669698623,115170240,RL_myo,0.5763597062711204,0.5542647985436879,0.006103565670561479,-0.6004687906698383,"(0.0, 0.0, 0.0, 0.0, 0.0, 0.0, 0.0, 0.0, 0.0)",224.5625,-403.375,98.9375,"(0.0, 0.0, 0.0, 0.0, 0.0, 0.0, 0.0, 0.0, 0.0)",0.05615234375,0.35791015625,0.7763671875,"(0.0, 0.0, 0.0, 0.0, 0.0, 0.0, 0.0, 0.0, 0.0)"
2022/11/28/23:10:23.138241,12473,1669698623,137845516,RL_myo,0.5716633042598612,0.5277173744000384,-0.07013037973463383,-0.6243373840779544,"(0.0, 0.0, 0.0, 0.0, 0.0, 0.0, 0.0, 0.0, 0.0)",199.6875,-410.6875,145.0625,"(0.0, 0.0, 0.0, 0.0, 0.0, 0.0, 0.0, 0.0, 0.0)",0.0068359375,0.24072265625,0.89501953125,"(0.0, 0.0, 0.0, 0.0, 0.0, 0.0, 0.0, 0.0, 0.0)"
2022/11/28/23:10:23.158941,12474,1669698623,158536434,RL_myo,0.5695729806656022,0.4952941210995887,-0.1495953038589146,-0.6386639165971776,"(0.0, 0.0, 0.0, 0.0, 0.0, 0.0, 0.0, 0.0, 0.0)",191.4375,-411.0625,196.1875,"(0.0, 0.0, 0.0, 0.0, 0.0, 0.0, 0.0, 0.0, 0.0)",0.19921875,0.26708984375,1.1142578125,"(0.0, 0.0, 0.0, 0.0, 0.0, 0.0, 0.0, 0.0, 0.0)"
2022/11/28/23:10:23.176168,12475,1669698623,175768375,RL_myo,0.5709152577840864,0.4554382781253851,-0.225277765285553,-0.644888883231415,"(0.0, 0.0, 0.0, 0.0, 0.0, 0.0, 0.0, 0.0, 0.0)",153.375,-399.875,228.3125,"(0.0, 0.0, 0.0, 0.0, 0.0, 0.0, 0.0, 0.0, 0.0)",0.40771484375,0.26416015625,1.220703125,"(0.0, 0.0, 0.0, 0.0, 0.0, 0.0, 0.0, 0.0, 0.0)"
2022/11/28/23:10:23.198104,12476,1669698623,197776079,RL_myo,0.5768593802833233,0.40815349444022675,-0.29377041554371336,-0.643694743886142,"(0.0, 0.0, 0.0, 0.0, 0.0, 0.0, 0.0, 0.0, 0.0)",98.9375,-383.1875,264.0625,"(0.0, 0.0, 0.0, 0.0, 0.0, 0.0, 0.0, 0.0, 0.0)",0.1962890625,0.26025390625,1.126953125,"(0.0, 0.0, 0.0, 0.0, 0.0, 0.0, 0.0, 0.0, 0.0)"
2022/11/28/23:10:23.219072,12477,1669698623,218567848,RL_myo,0.5847815321928814,0.3576682787444197,-0.36273422876759154,-0.6312906155381456,"(0.0, 0.0, 0.0, 0.0, 0.0, 0.0, 0.0, 0.0, 0.0)",104.9375,-370.0,315.25,"(0.0, 0.0, 0.0, 0.0, 0.0, 0.0, 0.0, 0.0, 0.0)",0.19287109375,0.3828125,1.1884765625,"(0.0, 0.0, 0.0, 0.0, 0.0, 0.0, 0.0, 0.0, 0.0)"
2022/11/28/23:10:23.236304,12478,1669698623,235602617,RL_myo,0.589957766661496,0.30651437038837503,-0.43377093396060956,-0.6081459949322519,"(0.0, 0.0, 0.0, 0.0, 0.0, 0.0, 0.0, 0.0, 0.0)",139.375,-361.4375,337.75,"(0.0, 0.0, 0.0, 0.0, 0.0, 0.0, 0.0, 0.0, 0.0)",0.908203125,0.46533203125,1.232421875,"(0.0, 0.0, 0.0, 0.0, 0.0, 0.0, 0.0, 0.0, 0.0)"
2022/11/28/23:10:23.258442,12479,1669698623,258082628,RL_myo,0.5956815236931468,0.25908484304071805,-0.49522129951292965,-0.576883377248732,"(0.0, 0.0, 0.0, 0.0, 0.0, 0.0, 0.0, 0.0, 0.0)",132.875,-299.3125,334.9375,"(0.0, 0.0, 0.0, 0.0, 0.0, 0.0, 0.0, 0.0, 0.0)",1.44677734375,0.7314453125,0.984375,"(0.0, 0.0, 0.0, 0.0, 0.0, 0.0, 0.0, 0.0, 0.0)"
2022/11/28/23:10:23.279879,12480,1669698623,278877496,RL_myo,0.6108804638792895,0.21147974896010974,-0.5440492012209,-0.5348942337334492,"(0.0, 0.0, 0.0, 0.0, 0.0, 0.0, 0.0, 0.0, 0.0)",104.125,-220.375,396.25,"(0.0, 0.0, 0.0, 0.0, 0.0, 0.0, 0.0, 0.0, 0.0)",0.93896484375,0.9560546875,0.90380859375,"(0.0, 0.0, 0.0, 0.0, 0.0, 0.0, 0.0, 0.0, 0.0)"
2022/11/28/23:10:23.296044,12481,1669698623,295568227,RL_myo,0.6233029193912777,0.16217350732693153,-0.5888173975095629,-0.4883516116382308,"(0.0, 0.0, 0.0, 0.0, 0.0, 0.0, 0.0, 0.0, 0.0)",108.4375,-218.25,399.8125,"(0.0, 0.0, 0.0, 0.0, 0.0, 0.0, 0.0, 0.0, 0.0)",1.08837890625,0.388671875,1.0703125,"(0.0, 0.0, 0.0, 0.0, 0.0, 0.0, 0.0, 0.0, 0.0)"
2022/11/28/23:10:23.317804,12482,1669698623,317447900,RL_myo,0.624824499018715,0.12652741882053298,-0.632820201799945,-0.43945847347218403,"(0.0, 0.0, 0.0, 0.0, 0.0, 0.0, 0.0, 0.0, 0.0)",172.5,-212.5625,323.125,"(0.0, 0.0, 0.0, 0.0, 0.0, 0.0, 0.0, 0.0, 0.0)",1.39501953125,-0.0830078125,0.93017578125,"(0.0, 0.0, 0.0, 0.0, 0.0, 0.0, 0.0, 0.0, 0.0)"
2022/11/28/23:10:23.338794,12483,1669698623,338412523,RL_myo,0.6184076905412446,0.1116942433567388,-0.6725458292611503,-0.3908688166429264,"(0.0, 0.0, 0.0, 0.0, 0.0, 0.0, 0.0, 0.0, 0.0)",233.125,-171.5625,231.6875,"(0.0, 0.0, 0.0, 0.0, 0.0, 0.0, 0.0, 0.0, 0.0)",1.4091796875,0.5634765625,0.44775390625,"(0.0, 0.0, 0.0, 0.0, 0.0, 0.0, 0.0, 0.0, 0.0)"
2022/11/28/23:10:23.355711,12484,1669698623,355293273,RL_myo,0.6157370178938981,0.10040517391311085,-0.700333717616434,-0.34687088349435197,"(0.0, 0.0, 0.0, 0.0, 0.0, 0.0, 0.0, 0.0, 0.0)",194.4375,-106.625,211.0,"(0.0, 0.0, 0.0, 0.0, 0.0, 0.0, 0.0, 0.0, 0.0)",1.4306640625,1.06201171875,0.0576171875,"(0.0, 0.0, 0.0, 0.0, 0.0, 0.0, 0.0, 0.0, 0.0)"
2022/11/28/23:10:23.378022,12485,1669698623,377736806,RL_myo,0.6181550712551076,0.08331177648728494,-0.7161761064482063,-0.3131057973478181,"(0.0, 0.0, 0.0, 0.0, 0.0, 0.0, 0.0, 0.0, 0.0)",106.5625,-62.375,202.875,"(0.0, 0.0, 0.0, 0.0, 0.0, 0.0, 0.0, 0.0, 0.0)",1.29931640625,0.93603515625,0.060546875,"(0.0, 0.0, 0.0, 0.0, 0.0, 0.0, 0.0, 0.0, 0.0)"
2022/11/28/23:10:23.399132,12486,1669698623,398634672,RL_myo,0.6232205939967672,0.07238660508081148,-0.7252698382590916,-0.2834429966233461,"(0.0, 0.0, 0.0, 0.0, 0.0, 0.0, 0.0, 0.0, 0.0)",97.4375,-18.1875,163.0625,"(0.0, 0.0, 0.0, 0.0, 0.0, 0.0, 0.0, 0.0, 0.0)",1.27978515625,0.73095703125,-0.01806640625,"(0.0, 0.0, 0.0, 0.0, 0.0, 0.0, 0.0, 0.0, 0.0)"
2022/11/28/23:10:23.416071,12487,1669698623,414975643,RL_myo,0.6308552693554413,0.07067825095913323,-0.7299146832644856,-0.253477354260173,"(0.0, 0.0, 0.0, 0.0, 0.0, 0.0, 0.0, 0.0, 0.0)",123.75,23.875,133.625,"(0.0, 0.0, 0.0, 0.0, 0.0, 0.0, 0.0, 0.0, 0.0)",1.255859375,0.9814453125,-0.06689453125,"(0.0, 0.0, 0.0, 0.0, 0.0, 0.0, 0.0, 0.0, 0.0)"
2022/11/28/23:10:23.438205,12488,1669698623,437832117,RL_myo,0.6403899618434339,0.0731821925514942,-0.7309674211815634,-0.22412427944043928,"(0.0, 0.0, 0.0, 0.0, 0.0, 0.0, 0.0, 0.0, 0.0)",130.625,51.0625,118.1875,"(0.0, 0.0, 0.0, 0.0, 0.0, 0.0, 0.0, 0.0, 0.0)",1.18701171875,1.076171875,-0.06689453125,"(0.0, 0.0, 0.0, 0.0, 0.0, 0.0, 0.0, 0.0, 0.0)"
2022/11/28/23:10:23.459519,12489,1669698623,459028244,RL_myo,0.6482001822414025,0.0781258223417133,-0.7311478326807684,-0.19787805939987071,"(0.0, 0.0, 0.0, 0.0, 0.0, 0.0, 0.0, 0.0, 0.0)",126.3125,48.4375,95.125,"(0.0, 0.0, 0.0, 0.0, 0.0, 0.0, 0.0, 0.0, 0.0)",1.107421875,1.06591796875,-0.04638671875,"(0.0, 0.0, 0.0, 0.0, 0.0, 0.0, 0.0, 0.0, 0.0)"
2022/11/28/23:10:23.475854,12490,1669698623,475210189,RL_myo,0.6547913118214987,0.0827034141981852,-0.7304756170655945,-0.17553875958227352,"(0.0, 0.0, 0.0, 0.0, 0.0, 0.0, 0.0, 0.0, 0.0)",107.5,45.875,81.0,"(0.0, 0.0, 0.0, 0.0, 0.0, 0.0, 0.0, 0.0, 0.0)",1.130859375,1.07177734375,-0.154296875,"(0.0, 0.0, 0.0, 0.0, 0.0, 0.0, 0.0, 0.0, 0.0)"
2022/11/28/23:10:23.498165,12491,1669698623,497766733,RL_myo,0.6588831149056364,0.09137082195588123,-0.7291354970507395,-0.16089077266246019,"(0.0, 0.0, 0.0, 0.0, 0.0, 0.0, 0.0, 0.0, 0.0)",88.5,52.625,67.8125,"(0.0, 0.0, 0.0, 0.0, 0.0, 0.0, 0.0, 0.0, 0.0)",0.9912109375,1.06298828125,-0.32177734375,"(0.0, 0.0, 0.0, 0.0, 0.0, 0.0, 0.0, 0.0, 0.0)"
2022/11/28/23:10:23.519231,12492,1669698623,518649816,RL_myo,0.662775089147497,0.0956412712675318,-0.7263121430016775,-0.1550890046527111,"(0.0, 0.0, 0.0, 0.0, 0.0, 0.0, 0.0, 0.0, 0.0)",33.875,48.25,50.0,"(0.0, 0.0, 0.0, 0.0, 0.0, 0.0, 0.0, 0.0, 0.0)",0.90966796875,1.0087890625,-0.29052734375,"(0.0, 0.0, 0.0, 0.0, 0.0, 0.0, 0.0, 0.0, 0.0)"
2022/11/28/23:10:23.536114,12493,1669698623,535810232,RL_myo,0.6663725541918426,0.09643420366579147,-0.7236837676362592,-0.15142611347773965,"(0.0, 0.0, 0.0, 0.0, 0.0, 0.0, 0.0, 0.0, 0.0)",9.4375,43.3125,31.5,"(0.0, 0.0, 0.0, 0.0, 0.0, 0.0, 0.0, 0.0, 0.0)",0.93212890625,0.6337890625,-0.30419921875,"(0.0, 0.0, 0.0, 0.0, 0.0, 0.0, 0.0, 0.0, 0.0)"
2022/11/28/23:10:23.558345,12494,1669698623,557958602,RL_myo,0.6676093013543031,0.102356993817075,-0.7230297845897856,-0.14508203595896677,"(0.0, 0.0, 0.0, 0.0, 0.0, 0.0, 0.0, 0.0, 0.0)",41.625,34.375,7.75,"(0.0, 0.0, 0.0, 0.0, 0.0, 0.0, 0.0, 0.0, 0.0)",0.97607421875,0.47119140625,-0.34765625,"(0.0, 0.0, 0.0, 0.0, 0.0, 0.0, 0.0, 0.0, 0.0)"
2022/11/28/23:10:23.579468,12495,1669698623,578652381,RL_myo,0.6677855089518929,0.1121825944112585,-0.722900243855792,-0.1374511439685278,"(0.0, 0.0, 0.0, 0.0, 0.0, 0.0, 0.0, 0.0, 0.0)",65.4375,24.875,-5.0625,"(0.0, 0.0, 0.0, 0.0, 0.0, 0.0, 0.0, 0.0, 0.0)",1.041015625,0.48388671875,-0.24462890625,"(0.0, 0.0, 0.0, 0.0, 0.0, 0.0, 0.0, 0.0, 0.0)"
2022/11/28/23:10:23.596291,12496,1669698623,595282077,RL_myo,0.6675613854041998,0.1230505397252324,-0.7226167360153901,-0.13055808753584927,"(0.0, 0.0, 0.0, 0.0, 0.0, 0.0, 0.0, 0.0, 0.0)",66.875,22.25,-13.8125,"(0.0, 0.0, 0.0, 0.0, 0.0, 0.0, 0.0, 0.0, 0.0)",0.98974609375,0.4521484375,-0.22021484375,"(0.0, 0.0, 0.0, 0.0, 0.0, 0.0, 0.0, 0.0, 0.0)"
2022/11/28/23:10:23.618328,12497,1669698623,617839813,RL_myo,0.667467295352985,0.13097886026220792,-0.7219095802336418,-0.1271947552592923,"(0.0, 0.0, 0.0, 0.0, 0.0, 0.0, 0.0, 0.0, 0.0)",41.875,16.5625,-14.625,"(0.0, 0.0, 0.0, 0.0, 0.0, 0.0, 0.0, 0.0, 0.0)",0.95751953125,0.45849609375,-0.17041015625,"(0.0, 0.0, 0.0, 0.0, 0.0, 0.0, 0.0, 0.0, 0.0)"
2022/11/28/23:10:23.639411,12498,1669698623,638997554,RL_myo,0.6683346696379062,0.13488763652052718,-0.7208859162642293,-0.12432855909154474,"(0.0, 0.0, 0.0, 0.0, 0.0, 0.0, 0.0, 0.0, 0.0)",24.8125,14.0,-6.25,"(0.0, 0.0, 0.0, 0.0, 0.0, 0.0, 0.0, 0.0, 0.0)",0.951171875,0.35400390625,-0.10400390625,"(0.0, 0.0, 0.0, 0.0, 0.0, 0.0, 0.0, 0.0, 0.0)"
2022/11/28/23:10:23.655658,12499,1669698623,655071020,RL_myo,0.6689473497319636,0.1380009085532819,-0.7202170371201798,-0.1214603308363693,"(0.0, 0.0, 0.0, 0.0, 0.0, 0.0, 0.0, 0.0, 0.0)",22.875,8.0,-7.125,"(0.0, 0.0, 0.0, 0.0, 0.0, 0.0, 0.0, 0.0, 0.0)",0.89306640625,0.2626953125,-0.0458984375,"(0.0, 0.0, 0.0, 0.0, 0.0, 0.0, 0.0, 0.0, 0.0)"
2022/11/28/23:10:23.678054,12500,1669698623,677667140,RL_myo,0.6686473230194048,0.14062651138628102,-0.7201005127323539,-0.12078987241035162,"(0.0, 0.0, 0.0, 0.0, 0.0, 0.0, 0.0, 0.0, 0.0)",13.375,-0.3125,-10.8125,"(0.0, 0.0, 0.0, 0.0, 0.0, 0.0, 0.0, 0.0, 0.0)",0.88916015625,0.31396484375,-0.0458984375,"(0.0, 0.0, 0.0, 0.0, 0.0, 0.0, 0.0, 0.0, 0.0)"
2022/11/28/23:10:23.699765,12501,1669698623,699002742,RL_myo,0.6692243590817595,0.1406195096511057,-0.7195153642694814,-0.12108902219956323,"(0.0, 0.0, 0.0, 0.0, 0.0, 0.0, 0.0, 0.0, 0.0)",-1.625,2.3125,-7.8125,"(0.0, 0.0, 0.0, 0.0, 0.0, 0.0, 0.0, 0.0, 0.0)",0.91015625,0.255859375,-0.04150390625,"(0.0, 0.0, 0.0, 0.0, 0.0, 0.0, 0.0, 0.0, 0.0)"
2022/11/28/23:10:23.714810,12502,1669698623,714498519,RL_myo,0.6707196021953561,0.139405184403876,-0.7183883627117428,-0.12091141431877336,"(0.0, 0.0, 0.0, 0.0, 0.0, 0.0, 0.0, 0.0, 0.0)",-6.25,8.3125,-6.0625,"(0.0, 0.0, 0.0, 0.0, 0.0, 0.0, 0.0, 0.0, 0.0)",0.94140625,0.18310546875,-0.048828125,"(0.0, 0.0, 0.0, 0.0, 0.0, 0.0, 0.0, 0.0, 0.0)"
2022/11/28/23:10:23.739819,12503,1669698623,739121675,RL_myo,0.6725386087446007,0.13903647796716584,-0.7167885852705863,-0.12072614285296489,"(0.0, 0.0, 0.0, 0.0, 0.0, 0.0, 0.0, 0.0, 0.0)",-2.75,10.5,-7.0,"(0.0, 0.0, 0.0, 0.0, 0.0, 0.0, 0.0, 0.0, 0.0)",0.93701171875,0.22265625,-0.02099609375,"(0.0, 0.0, 0.0, 0.0, 0.0, 0.0, 0.0, 0.0, 0.0)"
2022/11/28/23:10:23.758899,12504,1669698623,758473396,RL_myo,0.6746067913072358,0.13842469941959745,-0.7148891112441557,-0.1211521289011909,"(0.0, 0.0, 0.0, 0.0, 0.0, 0.0, 0.0, 0.0, 0.0)",-5.6875,9.4375,-5.0,"(0.0, 0.0, 0.0, 0.0, 0.0, 0.0, 0.0, 0.0, 0.0)",0.908203125,0.263671875,0.02490234375,"(0.0, 0.0, 0.0, 0.0, 0.0, 0.0, 0.0, 0.0, 0.0)"
2022/11/28/23:10:23.775715,12505,1669698623,775254487,RL_myo,0.6766762897249705,0.13714184387228365,-0.7129911081958245,-0.12224971663381581,"(0.0, 0.0, 0.0, 0.0, 0.0, 0.0, 0.0, 0.0, 0.0)",-10.375,8.25,-3.3125,"(0.0, 0.0, 0.0, 0.0, 0.0, 0.0, 0.0, 0.0, 0.0)",0.93115234375,0.2919921875,0.03271484375,"(0.0, 0.0, 0.0, 0.0, 0.0, 0.0, 0.0, 0.0, 0.0)"
2022/11/28/23:10:23.797825,12506,1669698623,797535896,RL_myo,0.6782839567207894,0.13427739627334984,-0.7113039891680086,-0.1262817876770731,"(0.0, 0.0, 0.0, 0.0, 0.0, 0.0, 0.0, 0.0, 0.0)",-30.625,9.6875,-4.8125,"(0.0, 0.0, 0.0, 0.0, 0.0, 0.0, 0.0, 0.0, 0.0)",0.95947265625,0.36328125,-0.07421875,"(0.0, 0.0, 0.0, 0.0, 0.0, 0.0, 0.0, 0.0, 0.0)"
2022/11/28/23:10:23.819416,12507,1669698623,818998575,RL_myo,0.6795429921527392,0.12969542467438214,-0.7092661318310564,-0.13543253993056656,"(0.0, 0.0, 0.0, 0.0, 0.0, 0.0, 0.0, 0.0, 0.0)",-61.1875,11.8125,-10.8125,"(0.0, 0.0, 0.0, 0.0, 0.0, 0.0, 0.0, 0.0, 0.0)",0.98486328125,0.49853515625,-0.1826171875,"(0.0, 0.0, 0.0, 0.0, 0.0, 0.0, 0.0, 0.0, 0.0)"
2022/11/28/23:10:23.834932,12508,1669698623,834457397,RL_myo,0.6802767506371545,0.12334822474768432,-0.7065210537749598,-0.15111835946326888,"(0.0, 0.0, 0.0, 0.0, 0.0, 0.0, 0.0, 0.0, 0.0)",-96.25,11.8125,-22.6875,"(0.0, 0.0, 0.0, 0.0, 0.0, 0.0, 0.0, 0.0, 0.0)",0.92138671875,0.6005859375,-0.2509765625,"(0.0, 0.0, 0.0, 0.0, 0.0, 0.0, 0.0, 0.0, 0.0)"
2022/11/28/23:10:23.857728,12509,1669698623,857314586,RL_myo,0.6816956085211611,0.1141347289761457,-0.7018980658960832,-0.172056578066179,"(0.0, 0.0, 0.0, 0.0, 0.0, 0.0, 0.0, 0.0, 0.0)",-127.4375,4.4375,-43.0,"(0.0, 0.0, 0.0, 0.0, 0.0, 0.0, 0.0, 0.0, 0.0)",1.02783203125,0.64892578125,-0.24169921875,"(0.0, 0.0, 0.0, 0.0, 0.0, 0.0, 0.0, 0.0, 0.0)"
2022/11/28/23:10:23.878855,12510,1669698623,878408908,RL_myo,0.6829203839924604,0.1004025410374115,-0.6945170300697298,-0.20294130635221475,"(0.0, 0.0, 0.0, 0.0, 0.0, 0.0, 0.0, 0.0, 0.0)",-188.0,4.6875,-64.6875,"(0.0, 0.0, 0.0, 0.0, 0.0, 0.0, 0.0, 0.0, 0.0)",1.119140625,0.80859375,-0.251953125,"(0.0, 0.0, 0.0, 0.0, 0.0, 0.0, 0.0, 0.0, 0.0)"
2022/11/28/23:10:23.894994,12511,1669698623,894543886,RL_myo,0.6859778444187037,0.08184858878596686,-0.6806677570030593,-0.24377573721935247,"(0.0, 0.0, 0.0, 0.0, 0.0, 0.0, 0.0, 0.0, 0.0)",-256.375,27.0625,-84.9375,"(0.0, 0.0, 0.0, 0.0, 0.0, 0.0, 0.0, 0.0, 0.0)",1.08642578125,0.935546875,-0.29541015625,"(0.0, 0.0, 0.0, 0.0, 0.0, 0.0, 0.0, 0.0, 0.0)"
2022/11/28/23:10:23.919002,12512,1669698623,918549537,RL_myo,0.6898179829537427,0.06597887449769917,-0.6597887449769916,-0.29064884399448976,"(0.0, 0.0, 0.0, 0.0, 0.0, 0.0, 0.0, 0.0, 0.0)",-280.25,59.1875,-122.3125,"(0.0, 0.0, 0.0, 0.0, 0.0, 0.0, 0.0, 0.0, 0.0)",1.064453125,0.9052734375,-0.23974609375,"(0.0, 0.0, 0.0, 0.0, 0.0, 0.0, 0.0, 0.0, 0.0)"
2022/11/28/23:10:23.940697,12513,1669698623,940271854,RL_myo,0.693338710912703,0.05920233711138397,-0.6338922404524061,-0.33757538820934513,"(0.0, 0.0, 0.0, 0.0, 0.0, 0.0, 0.0, 0.0, 0.0)",-251.4375,90.1875,-161.625,"(0.0, 0.0, 0.0, 0.0, 0.0, 0.0, 0.0, 0.0, 0.0)",1.17919921875,0.87548828125,0.0400390625,"(0.0, 0.0, 0.0, 0.0, 0.0, 0.0, 0.0, 0.0, 0.0)"
2022/11/28/23:10:23.961322,12514,1669698623,960929870,RL_myo,0.6969476403311359,0.06762571026244843,-0.6052745204627266,-0.37859411620755196,"(0.0, 0.0, 0.0, 0.0, 0.0, 0.0, 0.0, 0.0, 0.0)",-172.5625,131.125,-199.875,"(0.0, 0.0, 0.0, 0.0, 0.0, 0.0, 0.0, 0.0, 0.0)",1.29345703125,0.673828125,0.2890625,"(0.0, 0.0, 0.0, 0.0, 0.0, 0.0, 0.0, 0.0, 0.0)"
2022/11/28/23:10:23.978179,12515,1669698623,977602481,RL_myo,0.7003200999826159,0.09094273566098116,-0.5753196149935627,-0.4126602924858346,"(0.0, 0.0, 0.0, 0.0, 0.0, 0.0, 0.0, 0.0, 0.0)",-88.1875,167.375,-227.1875,"(0.0, 0.0, 0.0, 0.0, 0.0, 0.0, 0.0, 0.0, 0.0)",1.255859375,0.59912109375,0.642578125,"(0.0, 0.0, 0.0, 0.0, 0.0, 0.0, 0.0, 0.0, 0.0)"
2022/11/28/23:10:24.000559,12516,1669698624,110149,RL_myo,0.7011725045094246,0.12652599250069962,-0.5448002938066786,-0.44220010403645377,"(0.0, 0.0, 0.0, 0.0, 0.0, 0.0, 0.0, 0.0, 0.0)",-21.6875,192.0,-257.0,"(0.0, 0.0, 0.0, 0.0, 0.0, 0.0, 0.0, 0.0, 0.0)",1.24169921875,0.6650390625,0.8955078125,"(0.0, 0.0, 0.0, 0.0, 0.0, 0.0, 0.0, 0.0, 0.0)"
2022/11/28/23:10:24.021341,12517,1669698624,20925283,RL_myo,0.701655591139557,0.1732166464556422,-0.513180254897477,-0.46294864812052366,"(0.0, 0.0, 0.0, 0.0, 0.0, 0.0, 0.0, 0.0, 0.0)",51.25,229.8125,-260.6875,"(0.0, 0.0, 0.0, 0.0, 0.0, 0.0, 0.0, 0.0, 0.0)",1.21240234375,0.609375,1.1103515625,"(0.0, 0.0, 0.0, 0.0, 0.0, 0.0, 0.0, 0.0, 0.0)"
2022/11/28/23:10:24.037836,12518,1669698624,37497997,RL_myo,0.7019154950122743,0.2255285003539438,-0.47785186177835615,-0.4776077172583519,"(0.0, 0.0, 0.0, 0.0, 0.0, 0.0, 0.0, 0.0, 0.0)",85.125,265.4375,-258.125,"(0.0, 0.0, 0.0, 0.0, 0.0, 0.0, 0.0, 0.0, 0.0)",1.029296875,0.529296875,1.205078125,"(0.0, 0.0, 0.0, 0.0, 0.0, 0.0, 0.0, 0.0, 0.0)"
2022/11/28/23:10:24.060814,12519,1669698624,60277462,RL_myo,0.7035118184776917,0.27851157623752454,-0.43659726163204315,-0.48670859279378054,"(0.0, 0.0, 0.0, 0.0, 0.0, 0.0, 0.0, 0.0, 0.0)",87.1875,303.75,-242.75,"(0.0, 0.0, 0.0, 0.0, 0.0, 0.0, 0.0, 0.0, 0.0)",0.8974609375,0.33154296875,1.22802734375,"(0.0, 0.0, 0.0, 0.0, 0.0, 0.0, 0.0, 0.0, 0.0)"
2022/11/28/23:10:24.082776,12520,1669698624,81268787,RL_myo,0.7076938919494433,0.33086749359706186,-0.387568453115909,-0.4893738357611588,"(0.0, 0.0, 0.0, 0.0, 0.0, 0.0, 0.0, 0.0, 0.0)",76.875,350.375,-217.5625,"(0.0, 0.0, 0.0, 0.0, 0.0, 0.0, 0.0, 0.0, 0.0)",0.541015625,0.05517578125,1.123046875,"(0.0, 0.0, 0.0, 0.0, 0.0, 0.0, 0.0, 0.0, 0.0)"
2022/11/28/23:10:24.098539,12521,1669698624,98171234,RL_myo,0.7126477772734402,0.3800666074924385,-0.33270324031496423,-0.4868172894426995,"(0.0, 0.0, 0.0, 0.0, 0.0, 0.0, 0.0, 0.0, 0.0)",55.5625,375.5,-191.125,"(0.0, 0.0, 0.0, 0.0, 0.0, 0.0, 0.0, 0.0, 0.0)",0.06396484375,0.02099609375,0.93798828125,"(0.0, 0.0, 0.0, 0.0, 0.0, 0.0, 0.0, 0.0, 0.0)"
2022/11/28/23:10:24.120550,12522,1669698624,120166540,RL_myo,0.7138699944736829,0.43176439303238995,-0.2794200440065424,-0.4752826305545972,"(0.0, 0.0, 0.0, 0.0, 0.0, 0.0, 0.0, 0.0, 0.0)",93.625,390.125,-165.25,"(0.0, 0.0, 0.0, 0.0, 0.0, 0.0, 0.0, 0.0, 0.0)",-0.0048828125,0.16162109375,0.83740234375,"(0.0, 0.0, 0.0, 0.0, 0.0, 0.0, 0.0, 0.0, 0.0)"
2022/11/28/23:10:24.141594,12523,1669698624,140883922,RL_myo,0.7171139281799211,0.47870665918079164,-0.22381962504347355,-0.454414264643758,"(0.0, 0.0, 0.0, 0.0, 0.0, 0.0, 0.0, 0.0, 0.0)",73.875,415.75,-123.0,"(0.0, 0.0, 0.0, 0.0, 0.0, 0.0, 0.0, 0.0, 0.0)",0.17431640625,0.33154296875,0.685546875,"(0.0, 0.0, 0.0, 0.0, 0.0, 0.0, 0.0, 0.0, 0.0)"
2022/11/28/23:10:24.164081,12524,1669698624,163430929,RL_myo,0.7283906119390468,0.5134256600998207,-0.16174251061156977,-0.4238874476216423,"(0.0, 0.0, 0.0, 0.0, 0.0, 0.0, 0.0, 0.0, 0.0)",-8.0625,446.3125,-61.9375,"(0.0, 0.0, 0.0, 0.0, 0.0, 0.0, 0.0, 0.0, 0.0)",0.0078125,0.39794921875,0.37841796875,"(0.0, 0.0, 0.0, 0.0, 0.0, 0.0, 0.0, 0.0, 0.0)"
2022/11/28/23:10:24.180413,12525,1669698624,180050373,RL_myo,0.7472718720376733,0.5356577594545963,-0.09747555171478921,-0.38099085397853116,"(0.0, 0.0, 0.0, 0.0, 0.0, 0.0, 0.0, 0.0, 0.0)",-78.75,466.5,17.25,"(0.0, 0.0, 0.0, 0.0, 0.0, 0.0, 0.0, 0.0, 0.0)",-0.25048828125,0.392578125,0.19775390625,"(0.0, 0.0, 0.0, 0.0, 0.0, 0.0, 0.0, 0.0, 0.0)"
2022/11/28/23:10:24.202315,12526,1669698624,201420783,RL_myo,0.770584883287348,0.5459708341390358,-0.036927037971393704,-0.32672799051383555,"(0.0, 0.0, 0.0, 0.0, 0.0, 0.0, 0.0, 0.0, 0.0)",-128.4375,461.5,96.125,"(0.0, 0.0, 0.0, 0.0, 0.0, 0.0, 0.0, 0.0, 0.0)",-0.400390625,0.322265625,0.2119140625,"(0.0, 0.0, 0.0, 0.0, 0.0, 0.0, 0.0, 0.0, 0.0)"
2022/11/28/23:10:24.217858,12527,1669698624,217489004,RL_myo,0.7928146672842157,0.5483599176904607,0.016785282431531243,-0.26545161198083406,"(0.0, 0.0, 0.0, 0.0, 0.0, 0.0, 0.0, 0.0, 0.0)",-145.6875,438.25,148.75,"(0.0, 0.0, 0.0, 0.0, 0.0, 0.0, 0.0, 0.0, 0.0)",-0.40771484375,0.27734375,0.2236328125,"(0.0, 0.0, 0.0, 0.0, 0.0, 0.0, 0.0, 0.0, 0.0)"
2022/11/28/23:10:24.240691,12528,1669698624,240283727,RL_myo,0.8128926405156182,0.5450616669022729,0.06219684642479463,-0.19556299896471246,"(0.0, 0.0, 0.0, 0.0, 0.0, 0.0, 0.0, 0.0, 0.0)",-158.4375,414.0,215.4375,"(0.0, 0.0, 0.0, 0.0, 0.0, 0.0, 0.0, 0.0, 0.0)",-0.7275390625,0.27294921875,-0.21826171875,"(0.0, 0.0, 0.0, 0.0, 0.0, 0.0, 0.0, 0.0, 0.0)"
2022/11/28/23:10:24.262079,12529,1669698624,261387109,RL_myo,0.8224190288768544,0.5474451736675454,0.09509639654075547,-0.12201392598521833,"(0.0, 0.0, 0.0, 0.0, 0.0, 0.0, 0.0, 0.0, 0.0)",-78.5625,384.8125,252.125,"(0.0, 0.0, 0.0, 0.0, 0.0, 0.0, 0.0, 0.0, 0.0)",-0.1689453125,0.49072265625,0.443359375,"(0.0, 0.0, 0.0, 0.0, 0.0, 0.0, 0.0, 0.0, 0.0)"
2022/11/28/23:10:24.277889,12530,1669698624,277462482,RL_myo,0.8257174231610616,0.5497051384527292,0.11774164024820281,-0.046388619278711324,"(0.0, 0.0, 0.0, 0.0, 0.0, 0.0, 0.0, 0.0, 0.0)",-52.4375,346.375,288.75,"(0.0, 0.0, 0.0, 0.0, 0.0, 0.0, 0.0, 0.0, 0.0)",-0.09033203125,0.46142578125,0.486328125,"(0.0, 0.0, 0.0, 0.0, 0.0, 0.0, 0.0, 0.0, 0.0)"
2022/11/28/23:10:24.301046,12531,1669698624,300502538,RL_myo,0.8193289668975442,0.5572267107805767,0.13245502929059605,0.025575418098045966,"(0.0, 0.0, 0.0, 0.0, 0.0, 0.0, 0.0, 0.0, 0.0)",8.625,304.3125,299.3125,"(0.0, 0.0, 0.0, 0.0, 0.0, 0.0, 0.0, 0.0, 0.0)",-0.20166015625,0.57275390625,0.55712890625,"(0.0, 0.0, 0.0, 0.0, 0.0, 0.0, 0.0, 0.0, 0.0)"
2022/11/28/23:10:24.321790,12532,1669698624,321092367,RL_myo,0.802350657241029,0.5739447112999161,0.13910666777119096,0.08643047019043722,"(0.0, 0.0, 0.0, 0.0, 0.0, 0.0, 0.0, 0.0, 0.0)",93.8125,238.375,277.6875,"(0.0, 0.0, 0.0, 0.0, 0.0, 0.0, 0.0, 0.0, 0.0)",0.078125,0.52490234375,0.54833984375,"(0.0, 0.0, 0.0, 0.0, 0.0, 0.0, 0.0, 0.0, 0.0)"
2022/11/28/23:10:24.337895,12533,1669698624,337626695,RL_myo,0.7841853371844181,0.5855600482299466,0.14924364827709988,0.1410642417866576,"(0.0, 0.0, 0.0, 0.0, 0.0, 0.0, 0.0, 0.0, 0.0)",74.5625,237.375,230.1875,"(0.0, 0.0, 0.0, 0.0, 0.0, 0.0, 0.0, 0.0, 0.0)",0.29638671875,1.05712890625,0.30859375,"(0.0, 0.0, 0.0, 0.0, 0.0, 0.0, 0.0, 0.0, 0.0)"
2022/11/28/23:10:24.360562,12534,1669698624,360267162,RL_myo,0.7644995726717491,0.5954856551685097,0.15595180903603345,0.19135378525556354,"(0.0, 0.0, 0.0, 0.0, 0.0, 0.0, 0.0, 0.0, 0.0)",75.0625,209.4375,222.75,"(0.0, 0.0, 0.0, 0.0, 0.0, 0.0, 0.0, 0.0, 0.0)",0.30078125,1.08837890625,0.39892578125,"(0.0, 0.0, 0.0, 0.0, 0.0, 0.0, 0.0, 0.0, 0.0)"
2022/11/28/23:10:24.382086,12535,1669698624,381550073,RL_myo,0.7466249980834593,0.6015360820889872,0.16016546721476432,0.23463264328260444,"(0.0, 0.0, 0.0, 0.0, 0.0, 0.0, 0.0, 0.0, 0.0)",56.8125,176.875,194.6875,"(0.0, 0.0, 0.0, 0.0, 0.0, 0.0, 0.0, 0.0, 0.0)",0.3818359375,0.8642578125,0.42333984375,"(0.0, 0.0, 0.0, 0.0, 0.0, 0.0, 0.0, 0.0, 0.0)"
2022/11/28/23:10:24.397841,12536,1669698624,397493362,RL_myo,0.7313779023304123,0.604049050364026,0.1638916431110964,0.2708332292305157,"(0.0, 0.0, 0.0, 0.0, 0.0, 0.0, 0.0, 0.0, 0.0)",37.25,152.625,158.625,"(0.0, 0.0, 0.0, 0.0, 0.0, 0.0, 0.0, 0.0, 0.0)",0.447265625,0.931640625,0.3388671875,"(0.0, 0.0, 0.0, 0.0, 0.0, 0.0, 0.0, 0.0, 0.0)"
2022/11/28/23:10:24.421702,12537,1669698624,420321226,RL_myo,0.7167204322925705,0.6067891174774692,0.16767424863802516,0.3000068919024003,"(0.0, 0.0, 0.0, 0.0, 0.0, 0.0, 0.0, 0.0, 0.0)",42.0625,127.625,128.3125,"(0.0, 0.0, 0.0, 0.0, 0.0, 0.0, 0.0, 0.0, 0.0)",0.4765625,0.89599609375,0.28369140625,"(0.0, 0.0, 0.0, 0.0, 0.0, 0.0, 0.0, 0.0, 0.0)"
2022/11/28/23:10:24.442493,12538,1669698624,440969228,RL_myo,0.703641552204619,0.6100708981857362,0.17279747001138762,0.3206915957046381,"(0.0, 0.0, 0.0, 0.0, 0.0, 0.0, 0.0, 0.0, 0.0)",49.375,100.1875,89.1875,"(0.0, 0.0, 0.0, 0.0, 0.0, 0.0, 0.0, 0.0, 0.0)",0.3447265625,0.88037109375,0.26904296875,"(0.0, 0.0, 0.0, 0.0, 0.0, 0.0, 0.0, 0.0, 0.0)"
2022/11/28/23:10:24.457719,12539,1669698624,457407474,RL_myo,0.6920025491289401,0.613933283861593,0.1767087747841829,0.33614342754283083,"(0.0, 0.0, 0.0, 0.0, 0.0, 0.0, 0.0, 0.0, 0.0)",53.5,74.375,68.375,"(0.0, 0.0, 0.0, 0.0, 0.0, 0.0, 0.0, 0.0, 0.0)",0.2470703125,0.97705078125,0.26611328125,"(0.0, 0.0, 0.0, 0.0, 0.0, 0.0, 0.0, 0.0, 0.0)"
2022/11/28/23:10:24.480815,12540,1669698624,480379104,RL_myo,0.6847837068765082,0.6156888538428861,0.17737600964284989,0.34718332513714045,"(0.0, 0.0, 0.0, 0.0, 0.0, 0.0, 0.0, 0.0, 0.0)",27.75,47.0,44.4375,"(0.0, 0.0, 0.0, 0.0, 0.0, 0.0, 0.0, 0.0, 0.0)",0.3740234375,0.9833984375,0.2607421875,"(0.0, 0.0, 0.0, 0.0, 0.0, 0.0, 0.0, 0.0, 0.0)"
2022/11/28/23:10:24.501860,12541,1669698624,501236677,RL_myo,0.6813117325334165,0.6154511914651889,0.1763402253439384,0.354877836673471,"(0.0, 0.0, 0.0, 0.0, 0.0, 0.0, 0.0, 0.0, 0.0)",3.1875,29.4375,24.875,"(0.0, 0.0, 0.0, 0.0, 0.0, 0.0, 0.0, 0.0, 0.0)",0.419921875,0.93994140625,0.2021484375,"(0.0, 0.0, 0.0, 0.0, 0.0, 0.0, 0.0, 0.0, 0.0)"
2022/11/28/23:10:24.518400,12542,1669698624,517921209,RL_myo,0.6793678910659039,0.6147272264981778,0.1767088988891098,0.3596438107960742,"(0.0, 0.0, 0.0, 0.0, 0.0, 0.0, 0.0, 0.0, 0.0)",1.0,22.75,13.5625,"(0.0, 0.0, 0.0, 0.0, 0.0, 0.0, 0.0, 0.0, 0.0)",0.29052734375,0.888671875,0.1845703125,"(0.0, 0.0, 0.0, 0.0, 0.0, 0.0, 0.0, 0.0, 0.0)"
2022/11/28/23:10:24.540905,12543,1669698624,540494680,RL_myo,0.6778811003027029,0.6150736401720094,0.17737461529620516,0.36152437935286413,"(0.0, 0.0, 0.0, 0.0, 0.0, 0.0, 0.0, 0.0, 0.0)",6.375,10.375,6.625,"(0.0, 0.0, 0.0, 0.0, 0.0, 0.0, 0.0, 0.0, 0.0)",0.21875,0.89990234375,0.17626953125,"(0.0, 0.0, 0.0, 0.0, 0.0, 0.0, 0.0, 0.0, 0.0)"
2022/11/28/23:10:24.562057,12544,1669698624,561557292,RL_myo,0.6768155875649615,0.6157752207210797,0.17610145834459903,0.3629460212537213,"(0.0, 0.0, 0.0, 0.0, 0.0, 0.0, 0.0, 0.0, 0.0)",1.9375,0.75,6.6875,"(0.0, 0.0, 0.0, 0.0, 0.0, 0.0, 0.0, 0.0, 0.0)",0.29150390625,0.9365234375,0.1669921875,"(0.0, 0.0, 0.0, 0.0, 0.0, 0.0, 0.0, 0.0, 0.0)"
2022/11/28/23:10:24.577882,12545,1669698624,577583551,RL_myo,0.6768028807487024,0.6157026206811113,0.1742669755174554,0.36397687390913713,"(0.0, 0.0, 0.0, 0.0, 0.0, 0.0, 0.0, 0.0, 0.0)",-2.9375,-2.0625,2.125,"(0.0, 0.0, 0.0, 0.0, 0.0, 0.0, 0.0, 0.0, 0.0)",0.328125,0.93701171875,0.2119140625,"(0.0, 0.0, 0.0, 0.0, 0.0, 0.0, 0.0, 0.0, 0.0)"
2022/11/28/23:10:24.600618,12546,1669698624,600340127,RL_myo,0.6775272508983998,0.6152679900050334,0.17414281502821033,0.3634231758422588,"(0.0, 0.0, 0.0, 0.0, 0.0, 0.0, 0.0, 0.0, 0.0)",-0.25,-3.125,-3.4375,"(0.0, 0.0, 0.0, 0.0, 0.0, 0.0, 0.0, 0.0, 0.0)",0.20458984375,0.94775390625,0.232421875,"(0.0, 0.0, 0.0, 0.0, 0.0, 0.0, 0.0, 0.0, 0.0)"
2022/11/28/23:10:24.621531,12547,1669698624,621081829,RL_myo,0.6780015546689109,0.6153773563352503,0.1738340320217013,0.36250011101716434,"(0.0, 0.0, 0.0, 0.0, 0.0, 0.0, 0.0, 0.0, 0.0)",0.125,-5.9375,-1.625,"(0.0, 0.0, 0.0, 0.0, 0.0, 0.0, 0.0, 0.0, 0.0)",0.18798828125,0.95947265625,0.19873046875,"(0.0, 0.0, 0.0, 0.0, 0.0, 0.0, 0.0, 0.0, 0.0)"
2022/11/28/23:10:24.638111,12548,1669698624,637843608,RL_myo,0.6788217426876518,0.6148522088025102,0.17207072139524238,0.36269749078770136,"(0.0, 0.0, 0.0, 0.0, 0.0, 0.0, 0.0, 0.0, 0.0)",-8.9375,-5.5625,3.25,"(0.0, 0.0, 0.0, 0.0, 0.0, 0.0, 0.0, 0.0, 0.0)",0.2314453125,0.96337890625,0.18408203125,"(0.0, 0.0, 0.0, 0.0, 0.0, 0.0, 0.0, 0.0, 0.0)"
2022/11/28/23:10:24.661081,12549,1669698624,660625934,RL_myo,0.6795989692565367,0.6139218998367385,0.1706627194217062,0.3634822940473034,"(0.0, 0.0, 0.0, 0.0, 0.0, 0.0, 0.0, 0.0, 0.0)",-9.5625,-1.8125,6.0625,"(0.0, 0.0, 0.0, 0.0, 0.0, 0.0, 0.0, 0.0, 0.0)",0.20263671875,0.9306640625,0.1904296875,"(0.0, 0.0, 0.0, 0.0, 0.0, 0.0, 0.0, 0.0, 0.0)"
2022/11/28/23:10:24.681968,12550,1669698624,681262254,RL_myo,0.6796226277980694,0.6134549496470808,0.16987513680276875,0.36459367305890683,"(0.0, 0.0, 0.0, 0.0, 0.0, 0.0, 0.0, 0.0, 0.0)",-3.875,0.625,10.5,"(0.0, 0.0, 0.0, 0.0, 0.0, 0.0, 0.0, 0.0, 0.0)",0.1474609375,0.91748046875,0.19287109375,"(0.0, 0.0, 0.0, 0.0, 0.0, 0.0, 0.0, 0.0, 0.0)"
2022/11/28/23:10:24.698222,12551,1669698624,697696685,RL_myo,0.6797231209117477,0.6132523523527594,0.16944247338820145,0.36494832434728264,"(0.0, 0.0, 0.0, 0.0, 0.0, 0.0, 0.0, 0.0, 0.0)",-3.5625,-1.0,8.375,"(0.0, 0.0, 0.0, 0.0, 0.0, 0.0, 0.0, 0.0, 0.0)",0.130859375,0.96533203125,0.1748046875,"(0.0, 0.0, 0.0, 0.0, 0.0, 0.0, 0.0, 0.0, 0.0)"
2022/11/28/23:10:24.720260,12552,1669698624,719969034,RL_myo,0.6799777474052813,0.6131397192716384,0.16907884742483206,0.3648318668080221,"(0.0, 0.0, 0.0, 0.0, 0.0, 0.0, 0.0, 0.0, 0.0)",-4.5625,-2.125,5.1875,"(0.0, 0.0, 0.0, 0.0, 0.0, 0.0, 0.0, 0.0, 0.0)",0.14501953125,0.97216796875,0.1552734375,"(0.0, 0.0, 0.0, 0.0, 0.0, 0.0, 0.0, 0.0, 0.0)"
2022/11/28/23:10:24.741953,12553,1669698624,741195678,RL_myo,0.6800419386270343,0.6131425611263406,0.16920171024810512,0.3646504390411905,"(0.0, 0.0, 0.0, 0.0, 0.0, 0.0, 0.0, 0.0, 0.0)",-1.5625,-1.0625,4.125,"(0.0, 0.0, 0.0, 0.0, 0.0, 0.0, 0.0, 0.0, 0.0)",0.13818359375,0.96630859375,0.16748046875,"(0.0, 0.0, 0.0, 0.0, 0.0, 0.0, 0.0, 0.0, 0.0)"
2022/11/28/23:10:24.757671,12554,1669698624,757373094,RL_myo,0.6799790850750858,0.613385083116655,0.16962853477770765,0.36416115094775237,"(0.0, 0.0, 0.0, 0.0, 0.0, 0.0, 0.0, 0.0, 0.0)",3.125,-1.8125,3.0,"(0.0, 0.0, 0.0, 0.0, 0.0, 0.0, 0.0, 0.0, 0.0)",0.12646484375,0.9501953125,0.1953125,"(0.0, 0.0, 0.0, 0.0, 0.0, 0.0, 0.0, 0.0, 0.0)"
2022/11/28/23:10:24.780277,12555,1669698624,779913663,RL_myo,0.6795998946873782,0.6139837740848156,0.17017464580459946,0.3636048655157816,"(0.0, 0.0, 0.0, 0.0, 0.0, 0.0, 0.0, 0.0, 0.0)",4.875,-1.5625,1.5625,"(0.0, 0.0, 0.0, 0.0, 0.0, 0.0, 0.0, 0.0, 0.0)",0.15771484375,1.00048828125,0.1865234375,"(0.0, 0.0, 0.0, 0.0, 0.0, 0.0, 0.0, 0.0, 0.0)"
2022/11/28/23:10:24.802604,12556,1669698624,801313161,RL_myo,0.6804600038015736,0.6132563381946905,0.17078642721894535,0.3629364175281805,"(0.0, 0.0, 0.0, 0.0, 0.0, 0.0, 0.0, 0.0, 0.0)",-6.625,0.375,-3.0,"(0.0, 0.0, 0.0, 0.0, 0.0, 0.0, 0.0, 0.0, 0.0)",0.16552734375,1.03955078125,0.1689453125,"(0.0, 0.0, 0.0, 0.0, 0.0, 0.0, 0.0, 0.0, 0.0)"
2022/11/28/23:10:24.818691,12557,1669698624,818287134,RL_myo,0.6822872059006005,0.611726818530669,0.17298281817161407,0.3610421204958,"(0.0, 0.0, 0.0, 0.0, 0.0, 0.0, 0.0, 0.0, 0.0)",-10.8125,2.5625,-11.5,"(0.0, 0.0, 0.0, 0.0, 0.0, 0.0, 0.0, 0.0, 0.0)",0.10302734375,1.08984375,0.1484375,"(0.0, 0.0, 0.0, 0.0, 0.0, 0.0, 0.0, 0.0, 0.0)"
2022/11/28/23:10:24.840973,12558,1669698624,840697765,RL_myo,0.6843084574554259,0.6108174769205643,0.17615861281030765,0.35720034725083866,"(0.0, 0.0, 0.0, 0.0, 0.0, 0.0, 0.0, 0.0, 0.0)",-5.625,-2.0625,-21.125,"(0.0, 0.0, 0.0, 0.0, 0.0, 0.0, 0.0, 0.0, 0.0)",0.07666015625,1.1220703125,0.14306640625,"(0.0, 0.0, 0.0, 0.0, 0.0, 0.0, 0.0, 0.0, 0.0)"
2022/11/28/23:10:24.861815,12559,1669698624,861192941,RL_myo,0.6868473867630517,0.6095137300467284,0.18011966927377282,0.3525486986531046,"(0.0, 0.0, 0.0, 0.0, 0.0, 0.0, 0.0, 0.0, 0.0)",-7.75,-0.75,-31.3125,"(0.0, 0.0, 0.0, 0.0, 0.0, 0.0, 0.0, 0.0, 0.0)",0.10546875,1.11181640625,0.125,"(0.0, 0.0, 0.0, 0.0, 0.0, 0.0, 0.0, 0.0, 0.0)"
2022/11/28/23:10:24.877314,12560,1669698624,876891613,RL_myo,0.6895584644828635,0.6079492171593627,0.18708477415596855,0.3462746896531189,"(0.0, 0.0, 0.0, 0.0, 0.0, 0.0, 0.0, 0.0, 0.0)",0.875,5.1875,-49.8125,"(0.0, 0.0, 0.0, 0.0, 0.0, 0.0, 0.0, 0.0, 0.0)",0.10546875,1.189453125,0.1767578125,"(0.0, 0.0, 0.0, 0.0, 0.0, 0.0, 0.0, 0.0, 0.0)"
2022/11/28/23:10:24.900663,12561,1669698624,900303363,RL_myo,0.6920423117285721,0.6076275545297174,0.19904303920857944,0.33503441956942426,"(0.0, 0.0, 0.0, 0.0, 0.0, 0.0, 0.0, 0.0, 0.0)",23.0,4.8125,-82.6875,"(0.0, 0.0, 0.0, 0.0, 0.0, 0.0, 0.0, 0.0, 0.0)",0.03466796875,1.177734375,0.18115234375,"(0.0, 0.0, 0.0, 0.0, 0.0, 0.0, 0.0, 0.0, 0.0)"
2022/11/28/23:10:24.924313,12562,1669698624,923872709,RL_myo,0.6947257324892803,0.6077476821644495,0.21442378301131979,0.31940781568409804,"(0.0, 0.0, 0.0, 0.0, 0.0, 0.0, 0.0, 0.0, 0.0)",38.125,3.125,-118.4375,"(0.0, 0.0, 0.0, 0.0, 0.0, 0.0, 0.0, 0.0, 0.0)",-0.01513671875,1.25634765625,0.18505859375,"(0.0, 0.0, 0.0, 0.0, 0.0, 0.0, 0.0, 0.0, 0.0)"
2022/11/28/23:10:24.944122,12563,1669698624,943492412,RL_myo,0.6985163149443847,0.6062271967867554,0.23224873980805522,0.30103831399036224,"(0.0, 0.0, 0.0, 0.0, 0.0, 0.0, 0.0, 0.0, 0.0)",35.4375,4.8125,-143.125,"(0.0, 0.0, 0.0, 0.0, 0.0, 0.0, 0.0, 0.0, 0.0)",-0.00439453125,1.26513671875,0.1796875,"(0.0, 0.0, 0.0, 0.0, 0.0, 0.0, 0.0, 0.0, 0.0)"
2022/11/28/23:10:24.960646,12564,1669698624,960163354,RL_myo,0.7033698650158416,0.6021646896104554,0.25209733077457486,0.2812746973872254,"(0.0, 0.0, 0.0, 0.0, 0.0, 0.0, 0.0, 0.0, 0.0)",28.0625,11.1875,-161.875,"(0.0, 0.0, 0.0, 0.0, 0.0, 0.0, 0.0, 0.0, 0.0)",-0.0263671875,1.18408203125,0.208984375,"(0.0, 0.0, 0.0, 0.0, 0.0, 0.0, 0.0, 0.0, 0.0)"
2022/11/28/23:10:24.982877,12565,1669698624,982590913,RL_myo,0.7085189595773508,0.5966989445923657,0.27387358473669654,0.2587363774679867,"(0.0, 0.0, 0.0, 0.0, 0.0, 0.0, 0.0, 0.0, 0.0)",28.625,11.5625,-182.6875,"(0.0, 0.0, 0.0, 0.0, 0.0, 0.0, 0.0, 0.0, 0.0)",-0.05859375,1.04736328125,0.19287109375,"(0.0, 0.0, 0.0, 0.0, 0.0, 0.0, 0.0, 0.0, 0.0)"
2022/11/28/23:10:25.004244,12566,1669698625,3530025,RL_myo,0.7113941885429861,0.592431745516793,0.29761973945393394,0.23316394682404176,"(0.0, 0.0, 0.0, 0.0, 0.0, 0.0, 0.0, 0.0, 0.0)",48.625,10.8125,-196.625,"(0.0, 0.0, 0.0, 0.0, 0.0, 0.0, 0.0, 0.0, 0.0)",-0.10546875,0.990234375,0.16064453125,"(0.0, 0.0, 0.0, 0.0, 0.0, 0.0, 0.0, 0.0, 0.0)"
2022/11/28/23:10:25.021319,12567,1669698625,21020889,RL_myo,0.712245388564808,0.5887667339185996,0.32178915832664906,0.20618432792629374,"(0.0, 0.0, 0.0, 0.0, 0.0, 0.0, 0.0, 0.0, 0.0)",61.3125,10.5625,-200.5,"(0.0, 0.0, 0.0, 0.0, 0.0, 0.0, 0.0, 0.0, 0.0)",-0.15625,0.9453125,0.1337890625,"(0.0, 0.0, 0.0, 0.0, 0.0, 0.0, 0.0, 0.0, 0.0)"
2022/11/28/23:10:25.043251,12568,1669698625,42538642,RL_myo,0.7119981009635341,0.5846136143187938,0.34479873744903594,0.17999849119086686,"(0.0, 0.0, 0.0, 0.0, 0.0, 0.0, 0.0, 0.0, 0.0)",60.0,11.3125,-193.375,"(0.0, 0.0, 0.0, 0.0, 0.0, 0.0, 0.0, 0.0, 0.0)",-0.20458984375,0.93798828125,0.1181640625,"(0.0, 0.0, 0.0, 0.0, 0.0, 0.0, 0.0, 0.0, 0.0)"
2022/11/28/23:10:25.064565,12569,1669698625,63918113,RL_myo,0.7111576829523942,0.5798642166378634,0.3657417248520081,0.15570880175191468,"(0.0, 0.0, 0.0, 0.0, 0.0, 0.0, 0.0, 0.0, 0.0)",54.1875,11.0625,-179.375,"(0.0, 0.0, 0.0, 0.0, 0.0, 0.0, 0.0, 0.0, 0.0)",-0.2001953125,0.85205078125,0.1328125,"(0.0, 0.0, 0.0, 0.0, 0.0, 0.0, 0.0, 0.0, 0.0)"
2022/11/28/23:10:25.080537,12570,1669698625,80027103,RL_myo,0.7098688217021316,0.574670245599791,0.3849039372015169,0.13300121775485338,"(0.0, 0.0, 0.0, 0.0, 0.0, 0.0, 0.0, 0.0, 0.0)",49.5625,10.8125,-167.625,"(0.0, 0.0, 0.0, 0.0, 0.0, 0.0, 0.0, 0.0, 0.0)",-0.220703125,0.751953125,0.13330078125,"(0.0, 0.0, 0.0, 0.0, 0.0, 0.0, 0.0, 0.0, 0.0)"
2022/11/28/23:10:25.103291,12571,1669698625,102902173,RL_myo,0.7075981448473058,0.5702045949420798,0.4019264887276381,0.11236851416060466,"(0.0, 0.0, 0.0, 0.0, 0.0, 0.0, 0.0, 0.0, 0.0)",48.75,10.1875,-149.375,"(0.0, 0.0, 0.0, 0.0, 0.0, 0.0, 0.0, 0.0, 0.0)",-0.27783203125,0.71240234375,0.09228515625,"(0.0, 0.0, 0.0, 0.0, 0.0, 0.0, 0.0, 0.0, 0.0)"
2022/11/28/23:10:25.124361,12572,1669698625,123917579,RL_myo,0.7040723356533367,0.5669201433505151,0.4170110270640309,0.09479188012740632,"(0.0, 0.0, 0.0, 0.0, 0.0, 0.0, 0.0, 0.0, 0.0)",48.9375,14.25,-126.0,"(0.0, 0.0, 0.0, 0.0, 0.0, 0.0, 0.0, 0.0, 0.0)",-0.36865234375,0.7119140625,0.041015625,"(0.0, 0.0, 0.0, 0.0, 0.0, 0.0, 0.0, 0.0, 0.0)"
2022/11/28/23:10:25.141035,12573,1669698625,140313625,RL_myo,0.7009472496889361,0.5653233565498891,0.4270748786201224,0.0817893865014955,"(0.0, 0.0, 0.0, 0.0, 0.0, 0.0, 0.0, 0.0, 0.0)",44.875,9.3125,-93.25,"(0.0, 0.0, 0.0, 0.0, 0.0, 0.0, 0.0, 0.0, 0.0)",-0.35595703125,0.76513671875,0.07177734375,"(0.0, 0.0, 0.0, 0.0, 0.0, 0.0, 0.0, 0.0, 0.0)"
2022/11/28/23:10:25.163113,12574,1669698625,162771463,RL_myo,0.7004165310875272,0.561065686601878,0.4347770763343317,0.07477213512699092,"(0.0, 0.0, 0.0, 0.0, 0.0, 0.0, 0.0, 0.0, 0.0)",10.75,14.6875,-70.5625,"(0.0, 0.0, 0.0, 0.0, 0.0, 0.0, 0.0, 0.0, 0.0)",-0.33544921875,0.744140625,0.08251953125,"(0.0, 0.0, 0.0, 0.0, 0.0, 0.0, 0.0, 0.0, 0.0)"
2022/11/28/23:10:25.184318,12575,1669698625,183770895,RL_myo,0.6992635241769708,0.5589957537022259,0.44003061677651734,0.07019492430198293,"(0.0, 0.0, 0.0, 0.0, 0.0, 0.0, 0.0, 0.0, 0.0)",13.125,12.5625,-42.0,"(0.0, 0.0, 0.0, 0.0, 0.0, 0.0, 0.0, 0.0, 0.0)",-0.38525390625,0.65576171875,0.06103515625,"(0.0, 0.0, 0.0, 0.0, 0.0, 0.0, 0.0, 0.0, 0.0)"
2022/11/28/23:10:25.200832,12576,1669698625,200438261,RL_myo,0.6982855397826604,0.5580790813140616,0.4430817074547493,0.06799738560471011,"(0.0, 0.0, 0.0, 0.0, 0.0, 0.0, 0.0, 0.0, 0.0)",9.9375,10.6875,-18.6875,"(0.0, 0.0, 0.0, 0.0, 0.0, 0.0, 0.0, 0.0, 0.0)",-0.43994140625,0.6337890625,0.05419921875,"(0.0, 0.0, 0.0, 0.0, 0.0, 0.0, 0.0, 0.0, 0.0)"
2022/11/28/23:10:25.223500,12577,1669698625,222950696,RL_myo,0.6979212888259946,0.5577754711642416,0.44412063123123463,0.06744822670567815,"(0.0, 0.0, 0.0, 0.0, 0.0, 0.0, 0.0, 0.0, 0.0)",4.0625,4.9375,-3.9375,"(0.0, 0.0, 0.0, 0.0, 0.0, 0.0, 0.0, 0.0, 0.0)",-0.4794921875,0.6787109375,0.02392578125,"(0.0, 0.0, 0.0, 0.0, 0.0, 0.0, 0.0, 0.0, 0.0)"
2022/11/28/23:10:25.244861,12578,1669698625,244319677,RL_myo,0.6974457750266945,0.5584571499841788,0.4439456609285094,0.06787674617798742,"(0.0, 0.0, 0.0, 0.0, 0.0, 0.0, 0.0, 0.0, 0.0)",3.5625,1.8125,4.6875,"(0.0, 0.0, 0.0, 0.0, 0.0, 0.0, 0.0, 0.0, 0.0)",-0.4873046875,0.7373046875,-0.0078125,"(0.0, 0.0, 0.0, 0.0, 0.0, 0.0, 0.0, 0.0, 0.0)"
2022/11/28/23:10:25.261104,12579,1669698625,260666370,RL_myo,0.6968191161785594,0.5597869756896959,0.44314179953191496,0.06860762846747553,"(0.0, 0.0, 0.0, 0.0, 0.0, 0.0, 0.0, 0.0, 0.0)",5.1875,0.25,8.5,"(0.0, 0.0, 0.0, 0.0, 0.0, 0.0, 0.0, 0.0, 0.0)",-0.4619140625,0.7353515625,-0.01416015625,"(0.0, 0.0, 0.0, 0.0, 0.0, 0.0, 0.0, 0.0, 0.0)"
2022/11/28/23:10:25.283259,12580,1669698625,282831430,RL_myo,0.6965175162428993,0.5611327251617714,0.4417401862281888,0.06970668684159066,"(0.0, 0.0, 0.0, 0.0, 0.0, 0.0, 0.0, 0.0, 0.0)",3.375,-1.5625,13.1875,"(0.0, 0.0, 0.0, 0.0, 0.0, 0.0, 0.0, 0.0, 0.0)",-0.50244140625,0.763671875,-0.013671875,"(0.0, 0.0, 0.0, 0.0, 0.0, 0.0, 0.0, 0.0, 0.0)"
2022/11/28/23:10:25.297131,12581,1669698625,296756982,RL_myo,0.6964619289363266,0.5625410286658358,0.4397293370777649,0.07159946035427793,"(0.0, 0.0, 0.0, 0.0, 0.0, 0.0, 0.0, 0.0, 0.0)",1.4375,-1.8125,18.4375,"(0.0, 0.0, 0.0, 0.0, 0.0, 0.0, 0.0, 0.0, 0.0)",-0.52587890625,0.81396484375,-0.0009765625,"(0.0, 0.0, 0.0, 0.0, 0.0, 0.0, 0.0, 0.0, 0.0)"
2022/11/28/23:10:25.320643,12582,1669698625,320329189,RL_myo,0.6970470766483938,0.5631310270716359,0.4376381383160231,0.07403836286992134,"(0.0, 0.0, 0.0, 0.0, 0.0, 0.0, 0.0, 0.0, 0.0)",-6.0,-1.75,18.1875,"(0.0, 0.0, 0.0, 0.0, 0.0, 0.0, 0.0, 0.0, 0.0)",-0.52978515625,0.84033203125,-0.0029296875,"(0.0, 0.0, 0.0, 0.0, 0.0, 0.0, 0.0, 0.0, 0.0)"
2022/11/28/23:10:25.343045,12583,1669698625,342734336,RL_myo,0.697954061961418,0.5628799614698904,0.4361678816594921,0.07605166254516194,"(0.0, 0.0, 0.0, 0.0, 0.0, 0.0, 0.0, 0.0, 0.0)",-8.875,-1.25,14.5625,"(0.0, 0.0, 0.0, 0.0, 0.0, 0.0, 0.0, 0.0, 0.0)",-0.552734375,0.8271484375,-0.0048828125,"(0.0, 0.0, 0.0, 0.0, 0.0, 0.0, 0.0, 0.0, 0.0)"
2022/11/28/23:10:25.357941,12584,1669698625,357530117,RL_myo,0.6981629780712676,0.563205962464031,0.4352073818541824,0.077214212909613,"(0.0, 0.0, 0.0, 0.0, 0.0, 0.0, 0.0, 0.0, 0.0)",-2.875,-0.875,11.1875,"(0.0, 0.0, 0.0, 0.0, 0.0, 0.0, 0.0, 0.0, 0.0)",-0.5478515625,0.8212890625,-0.013671875,"(0.0, 0.0, 0.0, 0.0, 0.0, 0.0, 0.0, 0.0, 0.0)"
2022/11/28/23:10:25.380559,12585,1669698625,380166053,RL_myo,0.6979102001235341,0.5641756148103748,0.43422539475938615,0.07794571677083724,"(0.0, 0.0, 0.0, 0.0, 0.0, 0.0, 0.0, 0.0, 0.0)",2.125,-1.25,12.0,"(0.0, 0.0, 0.0, 0.0, 0.0, 0.0, 0.0, 0.0, 0.0)",-0.556640625,0.82861328125,-0.013671875,"(0.0, 0.0, 0.0, 0.0, 0.0, 0.0, 0.0, 0.0, 0.0)"
2022/11/28/23:10:25.403879,12586,1669698625,403497219,RL_myo,0.6977351377377509,0.5650366695860695,0.4332537842413223,0.07867908254255629,"(0.0, 0.0, 0.0, 0.0, 0.0, 0.0, 0.0, 0.0, 0.0)",1.5,-1.75,11.125,"(0.0, 0.0, 0.0, 0.0, 0.0, 0.0, 0.0, 0.0, 0.0)",-0.55859375,0.84814453125,-0.02294921875,"(0.0, 0.0, 0.0, 0.0, 0.0, 0.0, 0.0, 0.0, 0.0)"
2022/11/28/23:10:25.424473,12587,1669698625,423609495,RL_myo,0.6972003723666601,0.5661472118456289,0.4325303658369947,0.07941320998503107,"(0.0, 0.0, 0.0, 0.0, 0.0, 0.0, 0.0, 0.0, 0.0)",3.5,0.25,11.375,"(0.0, 0.0, 0.0, 0.0, 0.0, 0.0, 0.0, 0.0, 0.0)",-0.5712890625,0.8662109375,-0.0205078125,"(0.0, 0.0, 0.0, 0.0, 0.0, 0.0, 0.0, 0.0, 0.0)"
2022/11/28/23:10:25.440476,12588,1669698625,440068244,RL_myo,0.6966835814796547,0.5671006794749843,0.4320243901973888,0.07989826600287961,"(0.0, 0.0, 0.0, 0.0, 0.0, 0.0, 0.0, 0.0, 0.0)",3.75,0.125,7.375,"(0.0, 0.0, 0.0, 0.0, 0.0, 0.0, 0.0, 0.0, 0.0)",-0.52197265625,0.83837890625,-0.02392578125,"(0.0, 0.0, 0.0, 0.0, 0.0, 0.0, 0.0, 0.0, 0.0)"
2022/11/28/23:10:25.463223,12589,1669698625,462782144,RL_myo,0.6962536086416443,0.5677088466709856,0.43183959683875106,0.08032521688195002,"(0.0, 0.0, 0.0, 0.0, 0.0, 0.0, 0.0, 0.0, 0.0)",2.4375,1.3125,7.0,"(0.0, 0.0, 0.0, 0.0, 0.0, 0.0, 0.0, 0.0, 0.0)",-0.54345703125,0.837890625,-0.021484375,"(0.0, 0.0, 0.0, 0.0, 0.0, 0.0, 0.0, 0.0, 0.0)"
2022/11/28/23:10:25.485104,12590,1669698625,484257936,RL_myo,0.6957883765620244,0.568093904786627,0.4320370321349249,0.08057203764030811,"(0.0, 0.0, 0.0, 0.0, 0.0, 0.0, 0.0, 0.0, 0.0)",1.8125,2.0,5.25,"(0.0, 0.0, 0.0, 0.0, 0.0, 0.0, 0.0, 0.0, 0.0)",-0.55810546875,0.83447265625,-0.0283203125,"(0.0, 0.0, 0.0, 0.0, 0.0, 0.0, 0.0, 0.0, 0.0)"
2022/11/28/23:10:25.500696,12591,1669698625,500387668,RL_myo,0.6946808656705699,0.5690022871260041,0.43270298363401016,0.08014374629869592,"(0.0, 0.0, 0.0, 0.0, 0.0, 0.0, 0.0, 0.0, 0.0)",7.375,3.125,3.1875,"(0.0, 0.0, 0.0, 0.0, 0.0, 0.0, 0.0, 0.0, 0.0)",-0.5654296875,0.83203125,-0.0380859375,"(0.0, 0.0, 0.0, 0.0, 0.0, 0.0, 0.0, 0.0, 0.0)"
2022/11/28/23:10:25.522970,12592,1669698625,522601127,RL_myo,0.6938241480228222,0.569855040550811,0.433067856973865,0.07953311030823765,"(0.0, 0.0, 0.0, 0.0, 0.0, 0.0, 0.0, 0.0, 0.0)",8.75,1.625,2.3125,"(0.0, 0.0, 0.0, 0.0, 0.0, 0.0, 0.0, 0.0, 0.0)",-0.54345703125,0.8232421875,-0.013671875,"(0.0, 0.0, 0.0, 0.0, 0.0, 0.0, 0.0, 0.0, 0.0)"
2022/11/28/23:10:25.544703,12593,1669698625,543808937,RL_myo,0.6928317160971286,0.5706355135047181,0.43372937843240206,0.07898196111617341,"(0.0, 0.0, 0.0, 0.0, 0.0, 0.0, 0.0, 0.0, 0.0)",7.0,2.625,0.5625,"(0.0, 0.0, 0.0, 0.0, 0.0, 0.0, 0.0, 0.0, 0.0)",-0.53369140625,0.81689453125,-0.04052734375,"(0.0, 0.0, 0.0, 0.0, 0.0, 0.0, 0.0, 0.0, 0.0)"
2022/11/28/23:10:25.560374,12594,1669698625,560079097,RL_myo,0.6918614999477973,0.5710069988541371,0.43483205342991693,0.07873853859132408,"(0.0, 0.0, 0.0, 0.0, 0.0, 0.0, 0.0, 0.0, 0.0)",5.0,5.375,1.3125,"(0.0, 0.0, 0.0, 0.0, 0.0, 0.0, 0.0, 0.0, 0.0)",-0.55029296875,0.80517578125,-0.04345703125,"(0.0, 0.0, 0.0, 0.0, 0.0, 0.0, 0.0, 0.0, 0.0)"
2022/11/28/23:10:25.583837,12595,1669698625,583465576,RL_myo,0.6906492682095737,0.5714413123268254,0.436241300918588,0.07843431813073816,"(0.0, 0.0, 0.0, 0.0, 0.0, 0.0, 0.0, 0.0, 0.0)",5.8125,7.0625,1.75,"(0.0, 0.0, 0.0, 0.0, 0.0, 0.0, 0.0, 0.0, 0.0)",-0.5693359375,0.7861328125,-0.04541015625,"(0.0, 0.0, 0.0, 0.0, 0.0, 0.0, 0.0, 0.0, 0.0)"
2022/11/28/23:10:25.604468,12596,1669698625,603560447,RL_myo,0.6895461971878177,0.5718039103527908,0.4375203276482498,0.07837278190574118,"(0.0, 0.0, 0.0, 0.0, 0.0, 0.0, 0.0, 0.0, 0.0)",6.6875,8.1875,5.25,"(0.0, 0.0, 0.0, 0.0, 0.0, 0.0, 0.0, 0.0, 0.0)",-0.6005859375,0.7685546875,-0.0234375,"(0.0, 0.0, 0.0, 0.0, 0.0, 0.0, 0.0, 0.0, 0.0)"
2022/11/28/23:10:25.620426,12597,1669698625,620241403,RL_myo,0.6885329983369443,0.5723125347878715,0.4382073045266776,0.0797184482117065,"(0.0, 0.0, 0.0, 0.0, 0.0, 0.0, 0.0, 0.0, 0.0)",2.9375,10.5,14.3125,"(0.0, 0.0, 0.0, 0.0, 0.0, 0.0, 0.0, 0.0, 0.0)",-0.60888671875,0.75927734375,-0.02001953125,"(0.0, 0.0, 0.0, 0.0, 0.0, 0.0, 0.0, 0.0, 0.0)"
2022/11/28/23:10:25.643036,12598,1669698625,642761468,RL_myo,0.6877194413492477,0.5720517089132111,0.43929322973200813,0.08258492980789316,"(0.0, 0.0, 0.0, 0.0, 0.0, 0.0, 0.0, 0.0, 0.0)",-3.8125,16.9375,18.875,"(0.0, 0.0, 0.0, 0.0, 0.0, 0.0, 0.0, 0.0, 0.0)",-0.61865234375,0.7197265625,-0.01806640625,"(0.0, 0.0, 0.0, 0.0, 0.0, 0.0, 0.0, 0.0, 0.0)"
2022/11/28/23:10:25.664319,12599,1669698625,663757801,RL_myo,0.6866084820151341,0.5714921519341898,0.44087235003958697,0.08716125098387514,"(0.0, 0.0, 0.0, 0.0, 0.0, 0.0, 0.0, 0.0, 0.0)",-8.25,25.875,29.5625,"(0.0, 0.0, 0.0, 0.0, 0.0, 0.0, 0.0, 0.0, 0.0)",-0.6943359375,0.689453125,-0.01025390625,"(0.0, 0.0, 0.0, 0.0, 0.0, 0.0, 0.0, 0.0, 0.0)"
2022/11/28/23:10:25.686794,12600,1669698625,686304330,RL_myo,0.6855173513032948,0.5701556031096142,0.4428914523245221,0.09399846149114718,"(0.0, 0.0, 0.0, 0.0, 0.0, 0.0, 0.0, 0.0, 0.0)",-15.6875,36.25,41.625,"(0.0, 0.0, 0.0, 0.0, 0.0, 0.0, 0.0, 0.0, 0.0)",-0.783203125,0.6630859375,0.00146484375,"(0.0, 0.0, 0.0, 0.0, 0.0, 0.0, 0.0, 0.0, 0.0)"
2022/11/28/23:10:25.703191,12601,1669698625,702561140,RL_myo,0.6845870706316107,0.5678239584598676,0.4451402912015279,0.10376230564138181,"(0.0, 0.0, 0.0, 0.0, 0.0, 0.0, 0.0, 0.0, 0.0)",-28.0,46.6875,55.5,"(0.0, 0.0, 0.0, 0.0, 0.0, 0.0, 0.0, 0.0, 0.0)",-0.853515625,0.640625,-0.00927734375,"(0.0, 0.0, 0.0, 0.0, 0.0, 0.0, 0.0, 0.0, 0.0)"
2022/11/28/23:10:25.724234,12602,1669698625,723612070,RL_myo,0.6835778891625356,0.5655891348316863,0.4464406358902389,0.11627965700996788,"(0.0, 0.0, 0.0, 0.0, 0.0, 0.0, 0.0, 0.0, 0.0)",-33.6875,52.8125,72.125,"(0.0, 0.0, 0.0, 0.0, 0.0, 0.0, 0.0, 0.0, 0.0)",-0.8662109375,0.6337890625,0.015625,"(0.0, 0.0, 0.0, 0.0, 0.0, 0.0, 0.0, 0.0, 0.0)"
2022/11/28/23:10:25.739511,12603,1669698625,739222288,RL_myo,0.681498529676267,0.5646091714738442,0.44680423083119336,0.13092828895258332,"(0.0, 0.0, 0.0, 0.0, 0.0, 0.0, 0.0, 0.0, 0.0)",-30.625,58.1875,87.1875,"(0.0, 0.0, 0.0, 0.0, 0.0, 0.0, 0.0, 0.0, 0.0)",-0.83935546875,0.623046875,0.02880859375,"(0.0, 0.0, 0.0, 0.0, 0.0, 0.0, 0.0, 0.0, 0.0)"
2022/11/28/23:10:25.764225,12604,1669698625,763685703,RL_myo,0.6779073719517982,0.5661436047949692,0.44412516102298605,0.15058504291419827,"(0.0, 0.0, 0.0, 0.0, 0.0, 0.0, 0.0, 0.0, 0.0)",-33.125,62.1875,100.0,"(0.0, 0.0, 0.0, 0.0, 0.0, 0.0, 0.0, 0.0, 0.0)",-0.822265625,0.62841796875,0.0771484375,"(0.0, 0.0, 0.0, 0.0, 0.0, 0.0, 0.0, 0.0, 0.0)"
2022/11/28/23:10:25.783910,12605,1669698625,783369779,RL_myo,0.6743698220023606,0.56693943761386,0.4403424960105928,0.17292629487080807,"(0.0, 0.0, 0.0, 0.0, 0.0, 0.0, 0.0, 0.0, 0.0)",-43.75,67.3125,111.25,"(0.0, 0.0, 0.0, 0.0, 0.0, 0.0, 0.0, 0.0, 0.0)",-0.73876953125,0.65478515625,0.0927734375,"(0.0, 0.0, 0.0, 0.0, 0.0, 0.0, 0.0, 0.0, 0.0)"
2022/11/28/23:10:25.800107,12606,1669698625,799611568,RL_myo,0.6692396912200222,0.5686462024266443,0.4363120496936081,0.19593756008904337,"(0.0, 0.0, 0.0, 0.0, 0.0, 0.0, 0.0, 0.0, 0.0)",-36.0625,71.625,118.25,"(0.0, 0.0, 0.0, 0.0, 0.0, 0.0, 0.0, 0.0, 0.0)",-0.68603515625,0.65576171875,0.1337890625,"(0.0, 0.0, 0.0, 0.0, 0.0, 0.0, 0.0, 0.0, 0.0)"
2022/11/28/23:10:25.823160,12607,1669698625,822813510,RL_myo,0.6616607092262727,0.572727161869937,0.43215478056476114,0.21778647698517906,"(0.0, 0.0, 0.0, 0.0, 0.0, 0.0, 0.0, 0.0, 0.0)",-15.75,71.0,122.125,"(0.0, 0.0, 0.0, 0.0, 0.0, 0.0, 0.0, 0.0, 0.0)",-0.60888671875,0.71630859375,0.173828125,"(0.0, 0.0, 0.0, 0.0, 0.0, 0.0, 0.0, 0.0, 0.0)"
2022/11/28/23:10:25.846383,12608,1669698625,845949172,RL_myo,0.6544400731817734,0.577289144949936,0.4256729220639515,0.23926553692152136,"(0.0, 0.0, 0.0, 0.0, 0.0, 0.0, 0.0, 0.0, 0.0)",-17.5,58.8125,125.6875,"(0.0, 0.0, 0.0, 0.0, 0.0, 0.0, 0.0, 0.0, 0.0)",-0.38623046875,0.74560546875,0.146484375,"(0.0, 0.0, 0.0, 0.0, 0.0, 0.0, 0.0, 0.0, 0.0)"
2022/11/28/23:10:25.867017,12609,1669698625,866358041,RL_myo,0.6486764183296272,0.5807384439623668,0.4173943115214068,0.26027630072057306,"(0.0, 0.0, 0.0, 0.0, 0.0, 0.0, 0.0, 0.0, 0.0)",-28.875,48.375,121.6875,"(0.0, 0.0, 0.0, 0.0, 0.0, 0.0, 0.0, 0.0, 0.0)",-0.15771484375,0.787109375,0.09228515625,"(0.0, 0.0, 0.0, 0.0, 0.0, 0.0, 0.0, 0.0, 0.0)"
2022/11/28/23:10:25.882875,12610,1669698625,882398605,RL_myo,0.6408441480106759,0.5871912281038864,0.40834816174792093,0.27888531405474604,"(0.0, 0.0, 0.0, 0.0, 0.0, 0.0, 0.0, 0.0, 0.0)",-6.0,37.75,123.5,"(0.0, 0.0, 0.0, 0.0, 0.0, 0.0, 0.0, 0.0, 0.0)",-0.00341796875,0.84033203125,0.10693359375,"(0.0, 0.0, 0.0, 0.0, 0.0, 0.0, 0.0, 0.0, 0.0)"
2022/11/28/23:10:25.905916,12611,1669698625,905521869,RL_myo,0.632120383535918,0.5957411107870374,0.3977914773564675,0.29542899346406365,"(0.0, 0.0, 0.0, 0.0, 0.0, 0.0, 0.0, 0.0, 0.0)",7.5,23.9375,123.6875,"(0.0, 0.0, 0.0, 0.0, 0.0, 0.0, 0.0, 0.0, 0.0)",0.2724609375,0.8310546875,0.10888671875,"(0.0, 0.0, 0.0, 0.0, 0.0, 0.0, 0.0, 0.0, 0.0)"
2022/11/28/23:10:25.920034,12612,1669698625,919733524,RL_myo,0.6236745951486988,0.6041428012117657,0.3872178147997011,0.31000619189276196,"(0.0, 0.0, 0.0, 0.0, 0.0, 0.0, 0.0, 0.0, 0.0)",10.375,16.625,112.4375,"(0.0, 0.0, 0.0, 0.0, 0.0, 0.0, 0.0, 0.0, 0.0)",0.4677734375,0.8271484375,0.11181640625,"(0.0, 0.0, 0.0, 0.0, 0.0, 0.0, 0.0, 0.0, 0.0)"
2022/11/28/23:10:25.943417,12613,1669698625,942876577,RL_myo,0.6130792190498225,0.6141168879789192,0.37569719168176596,0.3253397289461922,"(0.0, 0.0, 0.0, 0.0, 0.0, 0.0, 0.0, 0.0, 0.0)",21.25,16.625,98.6875,"(0.0, 0.0, 0.0, 0.0, 0.0, 0.0, 0.0, 0.0, 0.0)",0.46728515625,0.96484375,0.01611328125,"(0.0, 0.0, 0.0, 0.0, 0.0, 0.0, 0.0, 0.0, 0.0)"
2022/11/28/23:10:25.966966,12614,1669698625,965472936,RL_myo,0.6032562802458438,0.6231552529626448,0.3634309311528639,0.3401137299939129,"(0.0, 0.0, 0.0, 0.0, 0.0, 0.0, 0.0, 0.0, 0.0)",11.6875,11.5625,97.1875,"(0.0, 0.0, 0.0, 0.0, 0.0, 0.0, 0.0, 0.0, 0.0)",0.4921875,1.0205078125,-0.0400390625,"(0.0, 0.0, 0.0, 0.0, 0.0, 0.0, 0.0, 0.0, 0.0)"
2022/11/28/23:10:25.986762,12615,1669698625,986128091,RL_myo,0.5947655928868433,0.6303514242346501,0.3506089455605529,0.35494272605059457,"(0.0, 0.0, 0.0, 0.0, 0.0, 0.0, 0.0, 0.0, 0.0)",-1.9375,10.875,90.375,"(0.0, 0.0, 0.0, 0.0, 0.0, 0.0, 0.0, 0.0, 0.0)",0.57275390625,1.017578125,-0.06201171875,"(0.0, 0.0, 0.0, 0.0, 0.0, 0.0, 0.0, 0.0, 0.0)"
2022/11/28/23:10:26.002970,12616,1669698626,2495050,RL_myo,0.5872038679710623,0.6358526707541119,0.338588342581651,0.36910829413939855,"(0.0, 0.0, 0.0, 0.0, 0.0, 0.0, 0.0, 0.0, 0.0)",-10.3125,12.8125,82.25,"(0.0, 0.0, 0.0, 0.0, 0.0, 0.0, 0.0, 0.0, 0.0)",0.58154296875,1.015625,-0.08544921875,"(0.0, 0.0, 0.0, 0.0, 0.0, 0.0, 0.0, 0.0, 0.0)"
2022/11/28/23:10:26.025390,12617,1669698626,24959087,RL_myo,0.5807240249919988,0.6398707120024305,0.32887755377936617,0.38100476813118106,"(0.0, 0.0, 0.0, 0.0, 0.0, 0.0, 0.0, 0.0, 0.0)",-11.0625,14.3125,69.125,"(0.0, 0.0, 0.0, 0.0, 0.0, 0.0, 0.0, 0.0, 0.0)",0.50537109375,0.99560546875,-0.09912109375,"(0.0, 0.0, 0.0, 0.0, 0.0, 0.0, 0.0, 0.0, 0.0)"
2022/11/28/23:10:26.047250,12618,1669698626,46648025,RL_myo,0.5741232738425085,0.6441948790276244,0.3210597937924298,0.3902768672069955,"(0.0, 0.0, 0.0, 0.0, 0.0, 0.0, 0.0, 0.0, 0.0)",-0.3125,10.4375,57.5,"(0.0, 0.0, 0.0, 0.0, 0.0, 0.0, 0.0, 0.0, 0.0)",0.4921875,1.04931640625,-0.10009765625,"(0.0, 0.0, 0.0, 0.0, 0.0, 0.0, 0.0, 0.0, 0.0)"
2022/11/28/23:10:26.062763,12619,1669698626,62456130,RL_myo,0.5683388004336933,0.6478732711634864,0.3134988807891149,0.3987100251780566,"(0.0, 0.0, 0.0, 0.0, 0.0, 0.0, 0.0, 0.0, 0.0)",-6.625,8.8125,51.6875,"(0.0, 0.0, 0.0, 0.0, 0.0, 0.0, 0.0, 0.0, 0.0)",0.5185546875,1.10546875,-0.146484375,"(0.0, 0.0, 0.0, 0.0, 0.0, 0.0, 0.0, 0.0, 0.0)"
2022/11/28/23:10:26.085807,12620,1669698626,85400819,RL_myo,0.5644787414141568,0.6495656105243789,0.30720388251918807,0.40626843672714397,"(0.0, 0.0, 0.0, 0.0, 0.0, 0.0, 0.0, 0.0, 0.0)",-17.0,11.8125,44.625,"(0.0, 0.0, 0.0, 0.0, 0.0, 0.0, 0.0, 0.0, 0.0)",0.4287109375,1.1337890625,-0.1640625,"(0.0, 0.0, 0.0, 0.0, 0.0, 0.0, 0.0, 0.0, 0.0)"
2022/11/28/23:10:26.106300,12621,1669698626,105897188,RL_myo,0.5621693912937751,0.6499435047227055,0.3019600411216401,0.41274586579028305,"(0.0, 0.0, 0.0, 0.0, 0.0, 0.0, 0.0, 0.0, 0.0)",-20.8125,11.4375,39.0625,"(0.0, 0.0, 0.0, 0.0, 0.0, 0.0, 0.0, 0.0, 0.0)",0.32275390625,1.0859375,-0.13525390625,"(0.0, 0.0, 0.0, 0.0, 0.0, 0.0, 0.0, 0.0, 0.0)"
2022/11/28/23:10:26.122981,12622,1669698626,122637987,RL_myo,0.5607109518321854,0.6501341550146535,0.29750763980296885,0.4176338267402366,"(0.0, 0.0, 0.0, 0.0, 0.0, 0.0, 0.0, 0.0, 0.0)",-17.5,6.5,33.1875,"(0.0, 0.0, 0.0, 0.0, 0.0, 0.0, 0.0, 0.0, 0.0)",0.251953125,0.9912109375,-0.0849609375,"(0.0, 0.0, 0.0, 0.0, 0.0, 0.0, 0.0, 0.0, 0.0)"
2022/11/28/23:10:26.145983,12623,1669698626,145421504,RL_myo,0.5590588246620599,0.6513502257854397,0.2931106535677707,0.42104899798219125,"(0.0, 0.0, 0.0, 0.0, 0.0, 0.0, 0.0, 0.0, 0.0)",-11.1875,-0.4375,31.25,"(0.0, 0.0, 0.0, 0.0, 0.0, 0.0, 0.0, 0.0, 0.0)",0.25341796875,0.98681640625,-0.09423828125,"(0.0, 0.0, 0.0, 0.0, 0.0, 0.0, 0.0, 0.0, 0.0)"
2022/11/28/23:10:26.166766,12624,1669698626,166284561,RL_myo,0.5566835119580591,0.6534927279630461,0.28993932914482246,0.42306726111637144,"(0.0, 0.0, 0.0, 0.0, 0.0, 0.0, 0.0, 0.0, 0.0)",-0.125,-2.5625,27.0625,"(0.0, 0.0, 0.0, 0.0, 0.0, 0.0, 0.0, 0.0, 0.0)",0.25341796875,1.0302734375,-0.08935546875,"(0.0, 0.0, 0.0, 0.0, 0.0, 0.0, 0.0, 0.0, 0.0)"
2022/11/28/23:10:26.183094,12625,1669698626,182641506,RL_myo,0.5538807087083077,0.6561234006949085,0.28927051780567226,0.4231321437917114,"(0.0, 0.0, 0.0, 0.0, 0.0, 0.0, 0.0, 0.0, 0.0)",15.1875,-3.1875,13.125,"(0.0, 0.0, 0.0, 0.0, 0.0, 0.0, 0.0, 0.0, 0.0)",0.25634765625,1.02001953125,-0.05908203125,"(0.0, 0.0, 0.0, 0.0, 0.0, 0.0, 0.0, 0.0, 0.0)"
2022/11/28/23:10:26.205988,12626,1669698626,205675840,RL_myo,0.5518559709133408,0.6585526015024924,0.2903027317402775,0.4212929887450369,"(0.0, 0.0, 0.0, 0.0, 0.0, 0.0, 0.0, 0.0, 0.0)",22.8125,-6.625,3.25,"(0.0, 0.0, 0.0, 0.0, 0.0, 0.0, 0.0, 0.0, 0.0)",0.20751953125,1.1064453125,-0.0166015625,"(0.0, 0.0, 0.0, 0.0, 0.0, 0.0, 0.0, 0.0, 0.0)"
2022/11/28/23:10:26.226832,12627,1669698626,226381778,RL_myo,0.5533046358630632,0.6578618163631655,0.29072145401166793,0.42018192093561246,"(0.0, 0.0, 0.0, 0.0, 0.0, 0.0, 0.0, 0.0, 0.0)",1.25,-4.75,-2.75,"(0.0, 0.0, 0.0, 0.0, 0.0, 0.0, 0.0, 0.0, 0.0)",0.1611328125,1.11083984375,0.05078125,"(0.0, 0.0, 0.0, 0.0, 0.0, 0.0, 0.0, 0.0, 0.0)"
2022/11/28/23:10:26.243023,12628,1669698626,242607355,RL_myo,0.5558231253571115,0.6559884832212693,0.29048564172792596,0.41994982456149,"(0.0, 0.0, 0.0, 0.0, 0.0, 0.0, 0.0, 0.0, 0.0)",-14.3125,-1.375,-2.3125,"(0.0, 0.0, 0.0, 0.0, 0.0, 0.0, 0.0, 0.0, 0.0)",0.1552734375,1.0771484375,-0.01171875,"(0.0, 0.0, 0.0, 0.0, 0.0, 0.0, 0.0, 0.0, 0.0)"
2022/11/28/23:10:26.265693,12629,1669698626,265264034,RL_myo,0.5569217897940353,0.6544624539863707,0.2908518553670077,0.4206212246241448,"(0.0, 0.0, 0.0, 0.0, 0.0, 0.0, 0.0, 0.0, 0.0)",-7.6875,5.0625,-0.9375,"(0.0, 0.0, 0.0, 0.0, 0.0, 0.0, 0.0, 0.0, 0.0)",0.1748046875,0.96923828125,0.00048828125,"(0.0, 0.0, 0.0, 0.0, 0.0, 0.0, 0.0, 0.0, 0.0)"
2022/11/28/23:10:26.287280,12630,1669698626,286512374,RL_myo,0.557706085235947,0.6530477624974714,0.29200677594054614,0.4209805045279989,"(0.0, 0.0, 0.0, 0.0, 0.0, 0.0, 0.0, 0.0, 0.0)",-3.375,6.75,-5.875,"(0.0, 0.0, 0.0, 0.0, 0.0, 0.0, 0.0, 0.0, 0.0)",0.1787109375,0.89892578125,0.00439453125,"(0.0, 0.0, 0.0, 0.0, 0.0, 0.0, 0.0, 0.0, 0.0)"
2022/11/28/23:10:26.309115,12631,1669698626,308517217,RL_myo,0.5578870849842216,0.6524349071549611,0.29408096011531504,0.4202464529667796,"(0.0, 0.0, 0.0, 0.0, 0.0, 0.0, 0.0, 0.0, 0.0)",3.6875,4.9375,-7.9375,"(0.0, 0.0, 0.0, 0.0, 0.0, 0.0, 0.0, 0.0, 0.0)",0.158203125,0.92333984375,-0.02490234375,"(0.0, 0.0, 0.0, 0.0, 0.0, 0.0, 0.0, 0.0, 0.0)"
2022/11/28/23:10:26.325907,12632,1669698626,325641155,RL_myo,0.5574046000936284,0.6526248340123822,0.29560999542854166,0.41951837674589443,"(0.0, 0.0, 0.0, 0.0, 0.0, 0.0, 0.0, 0.0, 0.0)",7.625,2.6875,-2.6875,"(0.0, 0.0, 0.0, 0.0, 0.0, 0.0, 0.0, 0.0, 0.0)",0.1591796875,0.9716796875,-0.02294921875,"(0.0, 0.0, 0.0, 0.0, 0.0, 0.0, 0.0, 0.0, 0.0)"
2022/11/28/23:10:26.346684,12633,1669698626,346181631,RL_myo,0.5572943964243231,0.6525166591211407,0.2960435731279263,0.41952731507386337,"(0.0, 0.0, 0.0, 0.0, 0.0, 0.0, 0.0, 0.0, 0.0)",0.4375,2.0,-0.625,"(0.0, 0.0, 0.0, 0.0, 0.0, 0.0, 0.0, 0.0, 0.0)",0.19677734375,0.953125,-0.0341796875,"(0.0, 0.0, 0.0, 0.0, 0.0, 0.0, 0.0, 0.0, 0.0)"
2022/11/28/23:10:26.363181,12634,1669698626,362584829,RL_myo,0.5575323688875949,0.6520821432916769,0.29604028783718367,0.41988889485195596,"(0.0, 0.0, 0.0, 0.0, 0.0, 0.0, 0.0, 0.0, 0.0)",-3.5,1.9375,-0.5625,"(0.0, 0.0, 0.0, 0.0, 0.0, 0.0, 0.0, 0.0, 0.0)",0.21240234375,0.91357421875,-0.0322265625,"(0.0, 0.0, 0.0, 0.0, 0.0, 0.0, 0.0, 0.0, 0.0)"
2022/11/28/23:10:26.386395,12635,1669698626,385962247,RL_myo,0.5573463222115933,0.652261833222329,0.29634392666052845,0.41964253260373496,"(0.0, 0.0, 0.0, 0.0, 0.0, 0.0, 0.0, 0.0, 0.0)",2.125,0.0,-0.9375,"(0.0, 0.0, 0.0, 0.0, 0.0, 0.0, 0.0, 0.0, 0.0)",0.19677734375,0.919921875,-0.02783203125,"(0.0, 0.0, 0.0, 0.0, 0.0, 0.0, 0.0, 0.0, 0.0)"
2022/11/28/23:10:26.406505,12636,1669698626,406045675,RL_myo,0.557285209588944,0.6526279803860887,0.2963438874648766,0.41915416585402837,"(0.0, 0.0, 0.0, 0.0, 0.0, 0.0, 0.0, 0.0, 0.0)",3.3125,-2.6875,0.125,"(0.0, 0.0, 0.0, 0.0, 0.0, 0.0, 0.0, 0.0, 0.0)",0.19873046875,0.94189453125,-0.01416015625,"(0.0, 0.0, 0.0, 0.0, 0.0, 0.0, 0.0, 0.0, 0.0)"
2022/11/28/23:10:26.423012,12637,1669698626,422686576,RL_myo,0.5575198362373975,0.652616826040098,0.29585051962367703,0.4192080397721093,"(0.0, 0.0, 0.0, 0.0, 0.0, 0.0, 0.0, 0.0, 0.0)",-0.8125,-2.1875,-0.125,"(0.0, 0.0, 0.0, 0.0, 0.0, 0.0, 0.0, 0.0, 0.0)",0.23046875,0.9384765625,-0.00244140625,"(0.0, 0.0, 0.0, 0.0, 0.0, 0.0, 0.0, 0.0, 0.0)"
2022/11/28/23:10:26.445520,12638,1669698626,445217370,RL_myo,0.5580245259592215,0.6521476739606565,0.2953098508631277,0.4196476280868134,"(0.0, 0.0, 0.0, 0.0, 0.0, 0.0, 0.0, 0.0, 0.0)",-3.75,-0.25,0.1875,"(0.0, 0.0, 0.0, 0.0, 0.0, 0.0, 0.0, 0.0, 0.0)",0.22412109375,0.93359375,0.0009765625,"(0.0, 0.0, 0.0, 0.0, 0.0, 0.0, 0.0, 0.0, 0.0)"
2022/11/28/23:10:26.466698,12639,1669698626,466249465,RL_myo,0.5587374273166514,0.651453415091831,0.29499431791800046,0.41999915199539856,"(0.0, 0.0, 0.0, 0.0, 0.0, 0.0, 0.0, 0.0, 0.0)",-3.5625,0.1875,1.125,"(0.0, 0.0, 0.0, 0.0, 0.0, 0.0, 0.0, 0.0, 0.0)",0.18994140625,0.9521484375,0.0166015625,"(0.0, 0.0, 0.0, 0.0, 0.0, 0.0, 0.0, 0.0, 0.0)"
2022/11/28/23:10:26.483483,12640,1669698626,482760906,RL_myo,0.5591688678614402,0.6512141306859192,0.2948744460908872,0.41988021417081617,"(0.0, 0.0, 0.0, 0.0, 0.0, 0.0, 0.0, 0.0, 0.0)",-1.25,-1.1875,1.375,"(0.0, 0.0, 0.0, 0.0, 0.0, 0.0, 0.0, 0.0, 0.0)",0.173828125,0.96142578125,-0.00439453125,"(0.0, 0.0, 0.0, 0.0, 0.0, 0.0, 0.0, 0.0, 0.0)"
2022/11/28/23:10:26.506235,12641,1669698626,505859851,RL_myo,0.5596708106357753,0.6511079220255006,0.29457643495782,0.41958524946126285,"(0.0, 0.0, 0.0, 0.0, 0.0, 0.0, 0.0, 0.0, 0.0)",-2.6875,-2.5,0.5,"(0.0, 0.0, 0.0, 0.0, 0.0, 0.0, 0.0, 0.0, 0.0)",0.19091796875,0.986328125,-0.02001953125,"(0.0, 0.0, 0.0, 0.0, 0.0, 0.0, 0.0, 0.0, 0.0)"
2022/11/28/23:10:26.526830,12642,1669698626,526234865,RL_myo,0.5605179211628791,0.6505499296258266,0.29420629206197074,0.41957967876223795,"(0.0, 0.0, 0.0, 0.0, 0.0, 0.0, 0.0, 0.0, 0.0)",-5.8125,-1.5,-0.25,"(0.0, 0.0, 0.0, 0.0, 0.0, 0.0, 0.0, 0.0, 0.0)",0.20166015625,0.9921875,-0.02197265625,"(0.0, 0.0, 0.0, 0.0, 0.0, 0.0, 0.0, 0.0, 0.0)"
2022/11/28/23:10:26.542640,12643,1669698626,542377948,RL_myo,0.561778966155755,0.6496103364619404,0.29407334408283653,0.4194420964170304,"(0.0, 0.0, 0.0, 0.0, 0.0, 0.0, 0.0, 0.0, 0.0)",-7.9375,-0.6875,-1.25,"(0.0, 0.0, 0.0, 0.0, 0.0, 0.0, 0.0, 0.0, 0.0)",0.16650390625,0.9892578125,-0.0205078125,"(0.0, 0.0, 0.0, 0.0, 0.0, 0.0, 0.0, 0.0, 0.0)"
2022/11/28/23:10:26.566022,12644,1669698626,565362215,RL_myo,0.5627804671618354,0.6490287101227544,0.29402532649875934,0.41903339556030367,"(0.0, 0.0, 0.0, 0.0, 0.0, 0.0, 0.0, 0.0, 0.0)",-5.0625,-2.0625,-2.0625,"(0.0, 0.0, 0.0, 0.0, 0.0, 0.0, 0.0, 0.0, 0.0)",0.1806640625,1.0009765625,-0.015625,"(0.0, 0.0, 0.0, 0.0, 0.0, 0.0, 0.0, 0.0, 0.0)"
2022/11/28/23:10:26.589127,12645,1669698626,588732719,RL_myo,0.5636885476311302,0.6485927999056188,0.2937772582294131,0.41866158616155086,"(0.0, 0.0, 0.0, 0.0, 0.0, 0.0, 0.0, 0.0, 0.0)",-5.6875,-2.3125,-3.8125,"(0.0, 0.0, 0.0, 0.0, 0.0, 0.0, 0.0, 0.0, 0.0)",0.22314453125,0.998046875,-0.025390625,"(0.0, 0.0, 0.0, 0.0, 0.0, 0.0, 0.0, 0.0, 0.0)"
2022/11/28/23:10:26.603813,12646,1669698626,603470563,RL_myo,0.5652865747155663,0.6475677865411341,0.29347779410781155,0.41830351976306834,"(0.0, 0.0, 0.0, 0.0, 0.0, 0.0, 0.0, 0.0, 0.0)",-12.3125,-2.125,-9.125,"(0.0, 0.0, 0.0, 0.0, 0.0, 0.0, 0.0, 0.0, 0.0)",0.2705078125,1.0078125,-0.05419921875,"(0.0, 0.0, 0.0, 0.0, 0.0, 0.0, 0.0, 0.0, 0.0)"
2022/11/28/23:10:26.625281,12647,1669698626,624985694,RL_myo,0.568924711190064,0.6454649523479162,0.2937094421463993,0.41645459762362486,"(0.0, 0.0, 0.0, 0.0, 0.0, 0.0, 0.0, 0.0, 0.0)",-20.75,-6.25,-21.5,"(0.0, 0.0, 0.0, 0.0, 0.0, 0.0, 0.0, 0.0, 0.0)",0.26025390625,1.0810546875,-0.068359375,"(0.0, 0.0, 0.0, 0.0, 0.0, 0.0, 0.0, 0.0, 0.0)"
2022/11/28/23:10:26.646838,12648,1669698626,646240472,RL_myo,0.5762558150426033,0.6416270657481036,0.29444529729536256,0.41175953058758624,"(0.0, 0.0, 0.0, 0.0, 0.0, 0.0, 0.0, 0.0, 0.0)",-39.875,-16.25,-48.1875,"(0.0, 0.0, 0.0, 0.0, 0.0, 0.0, 0.0, 0.0, 0.0)",0.32080078125,1.2265625,-0.13623046875,"(0.0, 0.0, 0.0, 0.0, 0.0, 0.0, 0.0, 0.0, 0.0)"
2022/11/28/23:10:26.662028,12649,1669698626,661749601,RL_myo,0.5860300495148665,0.6363257229655747,0.29579227371617983,0.4051731557837395,"(0.0, 0.0, 0.0, 0.0, 0.0, 0.0, 0.0, 0.0, 0.0)",-55.0,-20.4375,-74.5,"(0.0, 0.0, 0.0, 0.0, 0.0, 0.0, 0.0, 0.0, 0.0)",0.44580078125,1.28515625,-0.20849609375,"(0.0, 0.0, 0.0, 0.0, 0.0, 0.0, 0.0, 0.0, 0.0)"
2022/11/28/23:10:26.686041,12650,1669698626,685338258,RL_myo,0.5937984463441522,0.6332303744216936,0.2999512299892233,0.3955400835022725,"(0.0, 0.0, 0.0, 0.0, 0.0, 0.0, 0.0, 0.0, 0.0)",-33.3125,-23.8125,-92.5,"(0.0, 0.0, 0.0, 0.0, 0.0, 0.0, 0.0, 0.0, 0.0)",0.49609375,1.30419921875,-0.27099609375,"(0.0, 0.0, 0.0, 0.0, 0.0, 0.0, 0.0, 0.0, 0.0)"
2022/11/28/23:10:26.706361,12651,1669698626,705934524,RL_myo,0.6066428658143589,0.6269680569116707,0.3076855505151608,0.3797697868092304,"(0.0, 0.0, 0.0, 0.0, 0.0, 0.0, 0.0, 0.0, 0.0)",-28.625,-37.875,-128.9375,"(0.0, 0.0, 0.0, 0.0, 0.0, 0.0, 0.0, 0.0, 0.0)",0.5654296875,1.416015625,-0.2822265625,"(0.0, 0.0, 0.0, 0.0, 0.0, 0.0, 0.0, 0.0, 0.0)"
2022/11/28/23:10:26.722368,12652,1669698626,722048759,RL_myo,0.6212062556673505,0.62053481331574,0.31747015188423805,0.3581229342635694,"(0.0, 0.0, 0.0, 0.0, 0.0, 0.0, 0.0, 0.0, 0.0)",-21.25,-54.875,-162.375,"(0.0, 0.0, 0.0, 0.0, 0.0, 0.0, 0.0, 0.0, 0.0)",0.59375,1.43115234375,-0.3017578125,"(0.0, 0.0, 0.0, 0.0, 0.0, 0.0, 0.0, 0.0, 0.0)"
2022/11/28/23:10:26.745260,12653,1669698626,744972229,RL_myo,0.6365473079927936,0.6142080314825469,0.32788686724875704,0.3317321525497011,"(0.0, 0.0, 0.0, 0.0, 0.0, 0.0, 0.0, 0.0, 0.0)",-12.75,-71.3125,-184.3125,"(0.0, 0.0, 0.0, 0.0, 0.0, 0.0, 0.0, 0.0, 0.0)",0.5703125,1.41455078125,-0.26318359375,"(0.0, 0.0, 0.0, 0.0, 0.0, 0.0, 0.0, 0.0, 0.0)"
2022/11/28/23:10:26.767219,12654,1669698626,766450405,RL_myo,0.6528586278891266,0.6080569980395923,0.33802646608545095,0.2996337887348282,"(0.0, 0.0, 0.0, 0.0, 0.0, 0.0, 0.0, 0.0, 0.0)",-4.0,-94.9375,-206.4375,"(0.0, 0.0, 0.0, 0.0, 0.0, 0.0, 0.0, 0.0, 0.0)",0.53173828125,1.36572265625,-0.177734375,"(0.0, 0.0, 0.0, 0.0, 0.0, 0.0, 0.0, 0.0, 0.0)"
2022/11/28/23:10:26.789502,12655,1669698626,789066076,RL_myo,0.6699530266713973,0.6023839668567803,0.3469399602405451,0.26063223614129616,"(0.0, 0.0, 0.0, 0.0, 0.0, 0.0, 0.0, 0.0, 0.0)",7.6875,-125.8125,-230.0625,"(0.0, 0.0, 0.0, 0.0, 0.0, 0.0, 0.0, 0.0, 0.0)",0.5166015625,1.32373046875,-0.109375,"(0.0, 0.0, 0.0, 0.0, 0.0, 0.0, 0.0, 0.0, 0.0)"
2022/11/28/23:10:26.805520,12656,1669698626,805143594,RL_myo,0.6857066795040639,0.5985436798305903,0.355244158333065,0.2129633794543065,"(0.0, 0.0, 0.0, 0.0, 0.0, 0.0, 0.0, 0.0, 0.0)",36.6875,-158.375,-255.8125,"(0.0, 0.0, 0.0, 0.0, 0.0, 0.0, 0.0, 0.0, 0.0)",0.455078125,1.28125,-0.052734375,"(0.0, 0.0, 0.0, 0.0, 0.0, 0.0, 0.0, 0.0, 0.0)"
2022/11/28/23:10:26.828227,12657,1669698626,827826261,RL_myo,0.6980933327776916,0.597624536261815,0.3614068919626398,0.15778362028769194,"(0.0, 0.0, 0.0, 0.0, 0.0, 0.0, 0.0, 0.0, 0.0)",74.125,-188.875,-268.375,"(0.0, 0.0, 0.0, 0.0, 0.0, 0.0, 0.0, 0.0, 0.0)",0.3720703125,1.2490234375,0.01806640625,"(0.0, 0.0, 0.0, 0.0, 0.0, 0.0, 0.0, 0.0, 0.0)"
2022/11/28/23:10:26.841859,12658,1669698626,841547250,RL_myo,0.7059706445950148,0.6002520593936863,0.3632397809082598,0.09674593391692016,"(0.0, 0.0, 0.0, 0.0, 0.0, 0.0, 0.0, 0.0, 0.0)",113.75,-219.9375,-265.625,"(0.0, 0.0, 0.0, 0.0, 0.0, 0.0, 0.0, 0.0, 0.0)",0.32421875,1.14453125,0.09912109375,"(0.0, 0.0, 0.0, 0.0, 0.0, 0.0, 0.0, 0.0, 0.0)"
2022/11/28/23:10:26.865739,12659,1669698626,865366458,RL_myo,0.7110827149107642,0.6032911205302999,0.35981395745913775,0.0305796085983084,"(0.0, 0.0, 0.0, 0.0, 0.0, 0.0, 0.0, 0.0, 0.0)",134.3125,-252.25,-265.8125,"(0.0, 0.0, 0.0, 0.0, 0.0, 0.0, 0.0, 0.0, 0.0)",0.33349609375,0.978515625,0.21533203125,"(0.0, 0.0, 0.0, 0.0, 0.0, 0.0, 0.0, 0.0, 0.0)"
2022/11/28/23:10:26.887896,12660,1669698626,887503623,RL_myo,0.7129253285584529,0.6054371861276794,0.3515185759561756,-0.04022412598630312,"(0.0, 0.0, 0.0, 0.0, 0.0, 0.0, 0.0, 0.0, 0.0)",152.125,-280.3125,-268.5,"(0.0, 0.0, 0.0, 0.0, 0.0, 0.0, 0.0, 0.0, 0.0)",0.28173828125,0.86962890625,0.29248046875,"(0.0, 0.0, 0.0, 0.0, 0.0, 0.0, 0.0, 0.0, 0.0)"
2022/11/28/23:10:26.902655,12661,1669698626,902285099,RL_myo,0.7110141694816823,0.6069469397652888,0.3367383614928699,-0.11261233948782762,"(0.0, 0.0, 0.0, 0.0, 0.0, 0.0, 0.0, 0.0, 0.0)",167.1875,-304.5,-253.5625,"(0.0, 0.0, 0.0, 0.0, 0.0, 0.0, 0.0, 0.0, 0.0)",0.27490234375,0.728515625,0.3388671875,"(0.0, 0.0, 0.0, 0.0, 0.0, 0.0, 0.0, 0.0, 0.0)"
2022/11/28/23:10:26.925540,12662,1669698626,925188541,RL_myo,0.7050635737232505,0.6080723159406995,0.31520632799817033,-0.1837889724249595,"(0.0, 0.0, 0.0, 0.0, 0.0, 0.0, 0.0, 0.0, 0.0)",181.9375,-319.0625,-226.9375,"(0.0, 0.0, 0.0, 0.0, 0.0, 0.0, 0.0, 0.0, 0.0)",0.29443359375,0.53076171875,0.37841796875,"(0.0, 0.0, 0.0, 0.0, 0.0, 0.0, 0.0, 0.0, 0.0)"
2022/11/28/23:10:26.948038,12663,1669698626,947631359,RL_myo,0.6945477338568107,0.608545646063134,0.28791472542425306,-0.2537336259462837,"(0.0, 0.0, 0.0, 0.0, 0.0, 0.0, 0.0, 0.0, 0.0)",199.5,-329.875,-205.25,"(0.0, 0.0, 0.0, 0.0, 0.0, 0.0, 0.0, 0.0, 0.0)",0.20751953125,0.412109375,0.4306640625,"(0.0, 0.0, 0.0, 0.0, 0.0, 0.0, 0.0, 0.0, 0.0)"
2022/11/28/23:10:26.969331,12664,1669698626,968895435,RL_myo,0.6805821675175573,0.607701888771731,0.2534329291060895,-0.321369068339008,"(0.0, 0.0, 0.0, 0.0, 0.0, 0.0, 0.0, 0.0, 0.0)",211.8125,-346.625,-176.1875,"(0.0, 0.0, 0.0, 0.0, 0.0, 0.0, 0.0, 0.0, 0.0)",0.07177734375,0.3544921875,0.41455078125,"(0.0, 0.0, 0.0, 0.0, 0.0, 0.0, 0.0, 0.0, 0.0)"
2022/11/28/23:10:26.987310,12665,1669698626,986928224,RL_myo,0.6644669286904576,0.6051983830576785,0.20991197572721695,-0.384909833944702,"(0.0, 0.0, 0.0, 0.0, 0.0, 0.0, 0.0, 0.0, 0.0)",223.0625,-368.1875,-134.0,"(0.0, 0.0, 0.0, 0.0, 0.0, 0.0, 0.0, 0.0, 0.0)",0.0107421875,0.349609375,0.3935546875,"(0.0, 0.0, 0.0, 0.0, 0.0, 0.0, 0.0, 0.0, 0.0)"
2022/11/28/23:10:27.008296,12666,1669698627,7907390,RL_myo,0.6469919347840964,0.5999324270748003,0.15729228452251098,-0.44355569717698384,"(0.0, 0.0, 0.0, 0.0, 0.0, 0.0, 0.0, 0.0, 0.0)",232.3125,-390.0,-88.4375,"(0.0, 0.0, 0.0, 0.0, 0.0, 0.0, 0.0, 0.0, 0.0)",-0.03466796875,0.24560546875,0.4658203125,"(0.0, 0.0, 0.0, 0.0, 0.0, 0.0, 0.0, 0.0, 0.0)"
2022/11/28/23:10:27.028848,12667,1669698627,28435230,RL_myo,0.6295275055374437,0.5885111700981221,0.09607099997245845,-0.4981165379766413,"(0.0, 0.0, 0.0, 0.0, 0.0, 0.0, 0.0, 0.0, 0.0)",227.9375,-422.875,-49.375,"(0.0, 0.0, 0.0, 0.0, 0.0, 0.0, 0.0, 0.0, 0.0)",-0.0361328125,0.306640625,0.53662109375,"(0.0, 0.0, 0.0, 0.0, 0.0, 0.0, 0.0, 0.0, 0.0)"
2022/11/28/23:10:27.045710,12668,1669698627,45213460,RL_myo,0.611598843542967,0.5694217177058223,0.029481261619885537,-0.548485749309092,"(0.0, 0.0, 0.0, 0.0, 0.0, 0.0, 0.0, 0.0, 0.0)",214.9375,-446.3125,-28.8125,"(0.0, 0.0, 0.0, 0.0, 0.0, 0.0, 0.0, 0.0, 0.0)",0.44091796875,0.47900390625,0.6025390625,"(0.0, 0.0, 0.0, 0.0, 0.0, 0.0, 0.0, 0.0, 0.0)"
2022/11/28/23:10:27.069155,12669,1669698627,68660020,RL_myo,0.5977272764768647,0.545724454097789,-0.033814041781699486,-0.5863135114711286,"(0.0, 0.0, 0.0, 0.0, 0.0, 0.0, 0.0, 0.0, 0.0)",174.0625,-408.8125,19.125,"(0.0, 0.0, 0.0, 0.0, 0.0, 0.0, 0.0, 0.0, 0.0)",0.40771484375,0.32666015625,0.6533203125,"(0.0, 0.0, 0.0, 0.0, 0.0, 0.0, 0.0, 0.0, 0.0)"
2022/11/28/23:10:27.089195,12670,1669698627,88521718,RL_myo,0.5926495148533362,0.5134261296546101,-0.0978390496714622,-0.6128520884286662,"(0.0, 0.0, 0.0, 0.0, 0.0, 0.0, 0.0, 0.0, 0.0)",121.6875,-405.9375,95.25,"(0.0, 0.0, 0.0, 0.0, 0.0, 0.0, 0.0, 0.0, 0.0)",0.05908203125,0.3466796875,0.70654296875,"(0.0, 0.0, 0.0, 0.0, 0.0, 0.0, 0.0, 0.0, 0.0)"
2022/11/28/23:10:27.105597,12671,1669698627,105141878,RL_myo,0.5898458001281616,0.4736954940805735,-0.16644344960156215,-0.6324484872649018,"(0.0, 0.0, 0.0, 0.0, 0.0, 0.0, 0.0, 0.0, 0.0)",112.9375,-427.3125,147.625,"(0.0, 0.0, 0.0, 0.0, 0.0, 0.0, 0.0, 0.0, 0.0)",-0.0087890625,0.22265625,0.84130859375,"(0.0, 0.0, 0.0, 0.0, 0.0, 0.0, 0.0, 0.0, 0.0)"
2022/11/28/23:10:27.128071,12672,1669698627,127738952,RL_myo,0.5835580082587607,0.43176334592850885,-0.23590123438135235,-0.6460581024389689,"(0.0, 0.0, 0.0, 0.0, 0.0, 0.0, 0.0, 0.0, 0.0)",123.5625,-421.3125,151.5,"(0.0, 0.0, 0.0, 0.0, 0.0, 0.0, 0.0, 0.0, 0.0)",0.578125,0.275390625,0.802734375,"(0.0, 0.0, 0.0, 0.0, 0.0, 0.0, 0.0, 0.0, 0.0)"
2022/11/28/23:10:27.149279,12673,1669698627,148898363,RL_myo,0.5776972212642567,0.39147913124024747,-0.2982785335782802,-0.6511834816342689,"(0.0, 0.0, 0.0, 0.0, 0.0, 0.0, 0.0, 0.0, 0.0)",114.6875,-367.125,155.75,"(0.0, 0.0, 0.0, 0.0, 0.0, 0.0, 0.0, 0.0, 0.0)",0.994140625,0.45556640625,0.96484375,"(0.0, 0.0, 0.0, 0.0, 0.0, 0.0, 0.0, 0.0, 0.0)"
