time,.header.seq,.header.stamp.secs,.header.stamp.nsecs,.header.frame_id,.orientation.x,.orientation.y,.orientation.z,.orientation.w,.orientation_covariance,.angular_velocity.x,.angular_velocity.y,.angular_velocity.z,.angular_velocity_covariance,.linear_acceleration.x,.linear_acceleration.y,.linear_acceleration.z,.linear_acceleration_covariance
2022/11/28/22:55:17.354183,1,1669697717,353814125,RU_myo,0.6469024840241421,-0.19707973591036462,-0.6973778453118075,-0.2373623700698074,"(0.0, 0.0, 0.0, 0.0, 0.0, 0.0, 0.0, 0.0, 0.0)",-91.875,-19.5,-20.5,"(0.0, 0.0, 0.0, 0.0, 0.0, 0.0, 0.0, 0.0, 0.0)",0.95166015625,0.08447265625,-0.12646484375,"(0.0, 0.0, 0.0, 0.0, 0.0, 0.0, 0.0, 0.0, 0.0)"
2022/11/28/22:55:17.375472,2,1669697717,375002622,RU_myo,0.6379943171730901,-0.20458786483920388,-0.6984795719629622,-0.2514624114372076,"(0.0, 0.0, 0.0, 0.0, 0.0, 0.0, 0.0, 0.0, 0.0)",-93.0625,-24.625,-25.0625,"(0.0, 0.0, 0.0, 0.0, 0.0, 0.0, 0.0, 0.0, 0.0)",0.8779296875,0.234375,-0.18505859375,"(0.0, 0.0, 0.0, 0.0, 0.0, 0.0, 0.0, 0.0, 0.0)"
2022/11/28/22:55:17.389228,3,1669697717,388964176,RU_myo,0.6283321517129623,-0.21245499952528624,-0.6990691078892929,-0.2671403426952536,"(0.0, 0.0, 0.0, 0.0, 0.0, 0.0, 0.0, 0.0, 0.0)",-101.9375,-30.625,-36.0625,"(0.0, 0.0, 0.0, 0.0, 0.0, 0.0, 0.0, 0.0, 0.0)",0.88818359375,0.34814453125,-0.236328125,"(0.0, 0.0, 0.0, 0.0, 0.0, 0.0, 0.0, 0.0, 0.0)"
2022/11/28/22:55:17.412786,4,1669697717,412192583,RU_myo,0.6171131645525265,-0.2207594022536335,-0.6987764435725325,-0.2866149165007086,"(0.0, 0.0, 0.0, 0.0, 0.0, 0.0, 0.0, 0.0, 0.0)",-122.1875,-29.6875,-49.375,"(0.0, 0.0, 0.0, 0.0, 0.0, 0.0, 0.0, 0.0, 0.0)",0.9072265625,0.38037109375,-0.2646484375,"(0.0, 0.0, 0.0, 0.0, 0.0, 0.0, 0.0, 0.0, 0.0)"
2022/11/28/22:55:17.435155,5,1669697717,434737920,RU_myo,0.6028917181787671,-0.23003633182990213,-0.6981654549753915,-0.3101126564148933,"(0.0, 0.0, 0.0, 0.0, 0.0, 0.0, 0.0, 0.0, 0.0)",-146.1875,-36.5,-64.75,"(0.0, 0.0, 0.0, 0.0, 0.0, 0.0, 0.0, 0.0, 0.0)",0.97998046875,0.37841796875,-0.298828125,"(0.0, 0.0, 0.0, 0.0, 0.0, 0.0, 0.0, 0.0, 0.0)"
2022/11/28/22:55:17.449429,6,1669697717,449137687,RU_myo,0.5871087446705385,-0.23914045759633745,-0.6964859013863723,-0.33618826963773013,"(0.0, 0.0, 0.0, 0.0, 0.0, 0.0, 0.0, 0.0, 0.0)",-160.125,-36.6875,-77.6875,"(0.0, 0.0, 0.0, 0.0, 0.0, 0.0, 0.0, 0.0, 0.0)",1.02734375,0.30908203125,-0.22412109375,"(0.0, 0.0, 0.0, 0.0, 0.0, 0.0, 0.0, 0.0, 0.0)"
2022/11/28/22:55:17.472947,7,1669697717,472309350,RU_myo,0.5702320768695694,-0.2475501770077035,-0.6935189007244908,-0.3641233619398321,"(0.0, 0.0, 0.0, 0.0, 0.0, 0.0, 0.0, 0.0, 0.0)",-168.8125,-33.75,-87.8125,"(0.0, 0.0, 0.0, 0.0, 0.0, 0.0, 0.0, 0.0, 0.0)",1.06591796875,0.310546875,-0.17529296875,"(0.0, 0.0, 0.0, 0.0, 0.0, 0.0, 0.0, 0.0, 0.0)"
2022/11/28/22:55:17.495009,8,1669697717,494660377,RU_myo,0.5525992646860267,-0.2544495620141424,-0.689558923395486,-0.3929350636236625,"(0.0, 0.0, 0.0, 0.0, 0.0, 0.0, 0.0, 0.0, 0.0)",-170.5,-29.875,-97.4375,"(0.0, 0.0, 0.0, 0.0, 0.0, 0.0, 0.0, 0.0, 0.0)",1.0703125,0.3310546875,-0.15966796875,"(0.0, 0.0, 0.0, 0.0, 0.0, 0.0, 0.0, 0.0, 0.0)"
2022/11/28/22:55:17.509569,9,1669697717,509206771,RU_myo,0.5339954212829856,-0.26080265574833666,-0.6846908944968033,-0.4219351179939741,"(0.0, 0.0, 0.0, 0.0, 0.0, 0.0, 0.0, 0.0, 0.0)",-172.9375,-29.625,-102.0,"(0.0, 0.0, 0.0, 0.0, 0.0, 0.0, 0.0, 0.0, 0.0)",1.048828125,0.31201171875,-0.095703125,"(0.0, 0.0, 0.0, 0.0, 0.0, 0.0, 0.0, 0.0, 0.0)"
2022/11/28/22:55:17.532884,10,1669697717,532476663,RU_myo,0.5162054870373843,-0.2652434436822502,-0.6798312745459238,-0.4483383196709181,"(0.0, 0.0, 0.0, 0.0, 0.0, 0.0, 0.0, 0.0, 0.0)",-155.6875,-26.875,-101.375,"(0.0, 0.0, 0.0, 0.0, 0.0, 0.0, 0.0, 0.0, 0.0)",1.0146484375,0.22509765625,-0.03369140625,"(0.0, 0.0, 0.0, 0.0, 0.0, 0.0, 0.0, 0.0, 0.0)"
2022/11/28/22:55:17.555277,11,1669697717,554634809,RU_myo,0.5001564350038514,-0.26695353834128693,-0.6756231525921459,-0.47128834546671644,"(0.0, 0.0, 0.0, 0.0, 0.0, 0.0, 0.0, 0.0, 0.0)",-129.3125,-21.375,-98.875,"(0.0, 0.0, 0.0, 0.0, 0.0, 0.0, 0.0, 0.0, 0.0)",0.99267578125,0.216796875,0.03271484375,"(0.0, 0.0, 0.0, 0.0, 0.0, 0.0, 0.0, 0.0, 0.0)"
2022/11/28/22:55:17.576075,12,1669697717,575583219,RU_myo,0.48618618458645085,-0.2663465364719146,-0.6722747706778505,-0.49064156890415245,"(0.0, 0.0, 0.0, 0.0, 0.0, 0.0, 0.0, 0.0, 0.0)",-102.875,-15.25,-92.875,"(0.0, 0.0, 0.0, 0.0, 0.0, 0.0, 0.0, 0.0, 0.0)",0.95751953125,0.275390625,0.07177734375,"(0.0, 0.0, 0.0, 0.0, 0.0, 0.0, 0.0, 0.0, 0.0)"
2022/11/28/22:55:17.592603,13,1669697717,592021703,RU_myo,0.47496015998381996,-0.26525017415698815,-0.669045653269421,-0.506392244588249,"(0.0, 0.0, 0.0, 0.0, 0.0, 0.0, 0.0, 0.0, 0.0)",-81.1875,-14.4375,-83.25,"(0.0, 0.0, 0.0, 0.0, 0.0, 0.0, 0.0, 0.0, 0.0)",0.92529296875,0.2998046875,0.0771484375,"(0.0, 0.0, 0.0, 0.0, 0.0, 0.0, 0.0, 0.0, 0.0)"
2022/11/28/22:55:17.615281,14,1669697717,614863395,RU_myo,0.46562633646209506,-0.264398124204194,-0.6656338740930147,-0.5198242899000739,"(0.0, 0.0, 0.0, 0.0, 0.0, 0.0, 0.0, 0.0, 0.0)",-69.4375,-12.5625,-73.875,"(0.0, 0.0, 0.0, 0.0, 0.0, 0.0, 0.0, 0.0, 0.0)",0.93408203125,0.27099609375,0.10888671875,"(0.0, 0.0, 0.0, 0.0, 0.0, 0.0, 0.0, 0.0, 0.0)"
2022/11/28/22:55:17.636087,15,1669697717,635579109,RU_myo,0.4582355946551138,-0.26335729767405647,-0.6617195414558796,-0.5317803324760265,"(0.0, 0.0, 0.0, 0.0, 0.0, 0.0, 0.0, 0.0, 0.0)",-60.375,-6.8125,-63.0625,"(0.0, 0.0, 0.0, 0.0, 0.0, 0.0, 0.0, 0.0, 0.0)",0.908203125,0.29345703125,0.14990234375,"(0.0, 0.0, 0.0, 0.0, 0.0, 0.0, 0.0, 0.0, 0.0)"
2022/11/28/22:55:17.652844,16,1669697717,652419805,RU_myo,0.451948204703741,-0.2601830110266101,-0.6584223136183602,-0.5427040427043437,"(0.0, 0.0, 0.0, 0.0, 0.0, 0.0, 0.0, 0.0, 0.0)",-47.1875,0.0,-58.75,"(0.0, 0.0, 0.0, 0.0, 0.0, 0.0, 0.0, 0.0, 0.0)",0.85791015625,0.40576171875,0.1669921875,"(0.0, 0.0, 0.0, 0.0, 0.0, 0.0, 0.0, 0.0, 0.0)"
2022/11/28/22:55:17.674932,17,1669697717,674615859,RU_myo,0.44560615212503835,-0.25615792637567264,-0.6553175257316172,-0.5535135178224864,"(0.0, 0.0, 0.0, 0.0, 0.0, 0.0, 0.0, 0.0, 0.0)",-44.75,4.375,-58.3125,"(0.0, 0.0, 0.0, 0.0, 0.0, 0.0, 0.0, 0.0, 0.0)",0.81640625,0.46875,0.14892578125,"(0.0, 0.0, 0.0, 0.0, 0.0, 0.0, 0.0, 0.0, 0.0)"
2022/11/28/22:55:17.696135,18,1669697717,695558309,RU_myo,0.4399300769065981,-0.25341144274641997,-0.6510452456108049,-0.5642554884852247,"(0.0, 0.0, 0.0, 0.0, 0.0, 0.0, 0.0, 0.0, 0.0)",-50.125,5.4375,-51.125,"(0.0, 0.0, 0.0, 0.0, 0.0, 0.0, 0.0, 0.0, 0.0)",0.77978515625,0.43505859375,0.162109375,"(0.0, 0.0, 0.0, 0.0, 0.0, 0.0, 0.0, 0.0, 0.0)"
2022/11/28/22:55:17.712593,19,1669697717,712148666,RU_myo,0.43522710814809534,-0.2522498440577869,-0.6471340664274653,-0.5728567714314995,"(0.0, 0.0, 0.0, 0.0, 0.0, 0.0, 0.0, 0.0, 0.0)",-43.9375,0.9375,-42.8125,"(0.0, 0.0, 0.0, 0.0, 0.0, 0.0, 0.0, 0.0, 0.0)",0.7978515625,0.3701171875,0.15771484375,"(0.0, 0.0, 0.0, 0.0, 0.0, 0.0, 0.0, 0.0, 0.0)"
2022/11/28/22:55:17.735245,20,1669697717,734818220,RU_myo,0.43192312760275875,-0.2510854524456337,-0.6454128973292601,-0.5777894939967948,"(0.0, 0.0, 0.0, 0.0, 0.0, 0.0, 0.0, 0.0, 0.0)",-22.5,-1.9375,-35.0625,"(0.0, 0.0, 0.0, 0.0, 0.0, 0.0, 0.0, 0.0, 0.0)",0.82177734375,0.3388671875,0.119140625,"(0.0, 0.0, 0.0, 0.0, 0.0, 0.0, 0.0, 0.0, 0.0)"
2022/11/28/22:55:17.755911,21,1669697717,755499362,RU_myo,0.4304085908179226,-0.24810137856988873,-0.6454297855784928,-0.5801849212018111,"(0.0, 0.0, 0.0, 0.0, 0.0, 0.0, 0.0, 0.0, 0.0)",-1.125,3.9375,-28.4375,"(0.0, 0.0, 0.0, 0.0, 0.0, 0.0, 0.0, 0.0, 0.0)",0.8388671875,0.42822265625,0.10595703125,"(0.0, 0.0, 0.0, 0.0, 0.0, 0.0, 0.0, 0.0, 0.0)"
2022/11/28/22:55:17.772786,22,1669697717,772289991,RU_myo,0.4300978283820503,-0.2429713998565265,-0.6468251433507832,-0.5810318328646401,"(0.0, 0.0, 0.0, 0.0, 0.0, 0.0, 0.0, 0.0, 0.0)",16.3125,10.375,-24.875,"(0.0, 0.0, 0.0, 0.0, 0.0, 0.0, 0.0, 0.0, 0.0)",0.76416015625,0.47998046875,0.10302734375,"(0.0, 0.0, 0.0, 0.0, 0.0, 0.0, 0.0, 0.0, 0.0)"
2022/11/28/22:55:17.795413,23,1669697717,794528007,RU_myo,0.4309351843508111,-0.23966611938048932,-0.6479590500286873,-0.5805205315882899,"(0.0, 0.0, 0.0, 0.0, 0.0, 0.0, 0.0, 0.0, 0.0)",16.8125,7.6875,-12.375,"(0.0, 0.0, 0.0, 0.0, 0.0, 0.0, 0.0, 0.0, 0.0)",0.7138671875,0.421875,0.08349609375,"(0.0, 0.0, 0.0, 0.0, 0.0, 0.0, 0.0, 0.0, 0.0)"
2022/11/28/22:55:17.816121,24,1669697717,815536975,RU_myo,0.43217530212005306,-0.23772388105600997,-0.6490258667906572,-0.5792040131505866,"(0.0, 0.0, 0.0, 0.0, 0.0, 0.0, 0.0, 0.0, 0.0)",17.1875,3.3125,-4.0,"(0.0, 0.0, 0.0, 0.0, 0.0, 0.0, 0.0, 0.0, 0.0)",0.72021484375,0.43017578125,0.0947265625,"(0.0, 0.0, 0.0, 0.0, 0.0, 0.0, 0.0, 0.0, 0.0)"
2022/11/28/22:55:17.832986,25,1669697717,832431793,RU_myo,0.43431620781986263,-0.23522409569108357,-0.6506198391455503,-0.5768300281205062,"(0.0, 0.0, 0.0, 0.0, 0.0, 0.0, 0.0, 0.0, 0.0)",26.4375,4.5625,-1.75,"(0.0, 0.0, 0.0, 0.0, 0.0, 0.0, 0.0, 0.0, 0.0)",0.79345703125,0.4580078125,0.115234375,"(0.0, 0.0, 0.0, 0.0, 0.0, 0.0, 0.0, 0.0, 0.0)"
2022/11/28/22:55:17.855147,26,1669697717,854763507,RU_myo,0.43851173144121375,-0.23253022919847244,-0.6513287679806031,-0.5739407546935524,"(0.0, 0.0, 0.0, 0.0, 0.0, 0.0, 0.0, 0.0, 0.0)",28.5,14.125,7.25,"(0.0, 0.0, 0.0, 0.0, 0.0, 0.0, 0.0, 0.0, 0.0)",0.779296875,0.462890625,0.12353515625,"(0.0, 0.0, 0.0, 0.0, 0.0, 0.0, 0.0, 0.0, 0.0)"
2022/11/28/22:55:17.875733,27,1669697717,875324964,RU_myo,0.4424911270623641,-0.2301564193313345,-0.652201404660472,-0.5708440705399023,"(0.0, 0.0, 0.0, 0.0, 0.0, 0.0, 0.0, 0.0, 0.0)",25.875,15.75,12.3125,"(0.0, 0.0, 0.0, 0.0, 0.0, 0.0, 0.0, 0.0, 0.0)",0.744140625,0.50634765625,0.0458984375,"(0.0, 0.0, 0.0, 0.0, 0.0, 0.0, 0.0, 0.0, 0.0)"
2022/11/28/22:55:17.892885,28,1669697717,892286062,RU_myo,0.44475121566213016,-0.23125598410097586,-0.6529365315155027,-0.5677947796493478,"(0.0, 0.0, 0.0, 0.0, 0.0, 0.0, 0.0, 0.0, 0.0)",9.75,5.375,22.4375,"(0.0, 0.0, 0.0, 0.0, 0.0, 0.0, 0.0, 0.0, 0.0)",0.744140625,0.54150390625,-0.0703125,"(0.0, 0.0, 0.0, 0.0, 0.0, 0.0, 0.0, 0.0, 0.0)"
2022/11/28/22:55:17.915135,29,1669697717,914778709,RU_myo,0.4467663592781018,-0.23583404538942424,-0.6513511729803145,-0.566148189708152,"(0.0, 0.0, 0.0, 0.0, 0.0, 0.0, 0.0, 0.0, 0.0)",-12.75,1.625,33.25,"(0.0, 0.0, 0.0, 0.0, 0.0, 0.0, 0.0, 0.0, 0.0)",0.78125,0.5390625,-0.0849609375,"(0.0, 0.0, 0.0, 0.0, 0.0, 0.0, 0.0, 0.0, 0.0)"
2022/11/28/22:55:17.936541,30,1669697717,935811996,RU_myo,0.44633715926756884,-0.23803020937283173,-0.6499445383618679,-0.5671832655645449,"(0.0, 0.0, 0.0, 0.0, 0.0, 0.0, 0.0, 0.0, 0.0)",-18.875,1.8125,23.25,"(0.0, 0.0, 0.0, 0.0, 0.0, 0.0, 0.0, 0.0, 0.0)",0.8125,0.78662109375,-0.052734375,"(0.0, 0.0, 0.0, 0.0, 0.0, 0.0, 0.0, 0.0, 0.0)"
2022/11/28/22:55:17.952585,31,1669697717,952247381,RU_myo,0.4439441550940111,-0.23857268384142002,-0.6488884048610841,-0.5700355249626152,"(0.0, 0.0, 0.0, 0.0, 0.0, 0.0, 0.0, 0.0, 0.0)",-20.8125,-2.375,10.125,"(0.0, 0.0, 0.0, 0.0, 0.0, 0.0, 0.0, 0.0, 0.0)",0.77685546875,0.84912109375,0.013671875,"(0.0, 0.0, 0.0, 0.0, 0.0, 0.0, 0.0, 0.0, 0.0)"
2022/11/28/22:55:17.974929,32,1669697717,974565029,RU_myo,0.4430896205231579,-0.24205143732711354,-0.6465690688460516,-0.5718663559644613,"(0.0, 0.0, 0.0, 0.0, 0.0, 0.0, 0.0, 0.0, 0.0)",-23.1875,-8.8125,12.1875,"(0.0, 0.0, 0.0, 0.0, 0.0, 0.0, 0.0, 0.0, 0.0)",0.85400390625,0.58740234375,0.08984375,"(0.0, 0.0, 0.0, 0.0, 0.0, 0.0, 0.0, 0.0, 0.0)"
2022/11/28/22:55:17.995879,33,1669697717,995456218,RU_myo,0.44395981249443667,-0.24486757873627713,-0.6454323641914583,-0.5712763053269078,"(0.0, 0.0, 0.0, 0.0, 0.0, 0.0, 0.0, 0.0, 0.0)",-6.0625,-6.0,13.375,"(0.0, 0.0, 0.0, 0.0, 0.0, 0.0, 0.0, 0.0, 0.0)",0.880859375,0.4873046875,0.0830078125,"(0.0, 0.0, 0.0, 0.0, 0.0, 0.0, 0.0, 0.0, 0.0)"
2022/11/28/22:55:18.012791,34,1669697718,12332916,RU_myo,0.4451266758778822,-0.24285740344413728,-0.6476400874455241,-0.5687221124132875,"(0.0, 0.0, 0.0, 0.0, 0.0, 0.0, 0.0, 0.0, 0.0)",23.0625,1.5625,4.3125,"(0.0, 0.0, 0.0, 0.0, 0.0, 0.0, 0.0, 0.0, 0.0)",0.80859375,0.5703125,0.03759765625,"(0.0, 0.0, 0.0, 0.0, 0.0, 0.0, 0.0, 0.0, 0.0)"
2022/11/28/22:55:18.035054,35,1669697718,34536361,RU_myo,0.4457921473274742,-0.23992455245677727,-0.6502559607922933,-0.5664563142588017,"(0.0, 0.0, 0.0, 0.0, 0.0, 0.0, 0.0, 0.0, 0.0)",24.9375,2.5625,2.8125,"(0.0, 0.0, 0.0, 0.0, 0.0, 0.0, 0.0, 0.0, 0.0)",0.7822265625,0.6376953125,0.033203125,"(0.0, 0.0, 0.0, 0.0, 0.0, 0.0, 0.0, 0.0, 0.0)"
2022/11/28/22:55:18.056122,36,1669697718,55535554,RU_myo,0.4450560955905091,-0.23821365072541925,-0.6508609713901795,-0.5670620109889496,"(0.0, 0.0, 0.0, 0.0, 0.0, 0.0, 0.0, 0.0, 0.0)",3.75,-0.125,-0.625,"(0.0, 0.0, 0.0, 0.0, 0.0, 0.0, 0.0, 0.0, 0.0)",0.78369140625,0.66064453125,0.06982421875,"(0.0, 0.0, 0.0, 0.0, 0.0, 0.0, 0.0, 0.0, 0.0)"
2022/11/28/22:55:18.072753,37,1669697718,72340726,RU_myo,0.44358946051305365,-0.23784646775170198,-0.6501869183882169,-0.5691347990209445,"(0.0, 0.0, 0.0, 0.0, 0.0, 0.0, 0.0, 0.0, 0.0)",-11.5625,0.4375,-4.625,"(0.0, 0.0, 0.0, 0.0, 0.0, 0.0, 0.0, 0.0, 0.0)",0.7998046875,0.60009765625,0.0361328125,"(0.0, 0.0, 0.0, 0.0, 0.0, 0.0, 0.0, 0.0, 0.0)"
2022/11/28/22:55:18.095316,38,1669697718,94851016,RU_myo,0.44201459102858526,-0.2382191312875681,-0.6492890388514347,-0.5712254290854086,"(0.0, 0.0, 0.0, 0.0, 0.0, 0.0, 0.0, 0.0, 0.0)",-15.1875,0.3125,-6.1875,"(0.0, 0.0, 0.0, 0.0, 0.0, 0.0, 0.0, 0.0, 0.0)",0.8154296875,0.5390625,0.00537109375,"(0.0, 0.0, 0.0, 0.0, 0.0, 0.0, 0.0, 0.0, 0.0)"
2022/11/28/22:55:18.116050,39,1669697718,115618228,RU_myo,0.44116483918229116,-0.23840479549613022,-0.6485025479125406,-0.5726964147824347,"(0.0, 0.0, 0.0, 0.0, 0.0, 0.0, 0.0, 0.0, 0.0)",-9.875,0.0625,-4.6875,"(0.0, 0.0, 0.0, 0.0, 0.0, 0.0, 0.0, 0.0, 0.0)",0.828125,0.52294921875,0.04296875,"(0.0, 0.0, 0.0, 0.0, 0.0, 0.0, 0.0, 0.0, 0.0)"
2022/11/28/22:55:18.131926,40,1669697718,131681203,RU_myo,0.4410833670217699,-0.23717309592453273,-0.6486556004853149,-0.5730971103271648,"(0.0, 0.0, 0.0, 0.0, 0.0, 0.0, 0.0, 0.0, 0.0)",3.5,2.0,-4.5,"(0.0, 0.0, 0.0, 0.0, 0.0, 0.0, 0.0, 0.0, 0.0)",0.81982421875,0.54541015625,0.08056640625,"(0.0, 0.0, 0.0, 0.0, 0.0, 0.0, 0.0, 0.0, 0.0)"
2022/11/28/22:55:18.155366,41,1669697718,154876947,RU_myo,0.4412185669417133,-0.234860844597,-0.6497124975922726,-0.5727479640587962,"(0.0, 0.0, 0.0, 0.0, 0.0, 0.0, 0.0, 0.0, 0.0)",10.75,4.25,-4.9375,"(0.0, 0.0, 0.0, 0.0, 0.0, 0.0, 0.0, 0.0, 0.0)",0.7978515625,0.57421875,0.05126953125,"(0.0, 0.0, 0.0, 0.0, 0.0, 0.0, 0.0, 0.0, 0.0)"
2022/11/28/22:55:18.176055,42,1669697718,175570487,RU_myo,0.4406072951669701,-0.23296828447878168,-0.649894234511414,-0.573784344350282,"(0.0, 0.0, 0.0, 0.0, 0.0, 0.0, 0.0, 0.0, 0.0)",0.5625,4.25,-5.625,"(0.0, 0.0, 0.0, 0.0, 0.0, 0.0, 0.0, 0.0, 0.0)",0.7900390625,0.61376953125,0.0546875,"(0.0, 0.0, 0.0, 0.0, 0.0, 0.0, 0.0, 0.0, 0.0)"
2022/11/28/22:55:18.192127,43,1669697718,191838502,RU_myo,0.440051679352441,-0.2304015380798148,-0.6475656474243272,-0.5778653675601819,"(0.0, 0.0, 0.0, 0.0, 0.0, 0.0, 0.0, 0.0, 0.0)",-14.4375,12.8125,-8.6875,"(0.0, 0.0, 0.0, 0.0, 0.0, 0.0, 0.0, 0.0, 0.0)",0.80419921875,0.6943359375,0.13720703125,"(0.0, 0.0, 0.0, 0.0, 0.0, 0.0, 0.0, 0.0, 0.0)"
2022/11/28/22:55:18.215310,44,1669697718,214861392,RU_myo,0.4399755923440354,-0.2263655808023342,-0.642294788989961,-0.5853524630561303,"(0.0, 0.0, 0.0, 0.0, 0.0, 0.0, 0.0, 0.0, 0.0)",-29.625,26.1875,-16.3125,"(0.0, 0.0, 0.0, 0.0, 0.0, 0.0, 0.0, 0.0, 0.0)",0.79345703125,0.71337890625,0.236328125,"(0.0, 0.0, 0.0, 0.0, 0.0, 0.0, 0.0, 0.0, 0.0)"
2022/11/28/22:55:18.237839,45,1669697718,237456321,RU_myo,0.4404859221184879,-0.22173830609068404,-0.6344535347681421,-0.5952083570042254,"(0.0, 0.0, 0.0, 0.0, 0.0, 0.0, 0.0, 0.0, 0.0)",-44.5,40.8125,-23.0,"(0.0, 0.0, 0.0, 0.0, 0.0, 0.0, 0.0, 0.0, 0.0)",0.77734375,0.65087890625,0.2529296875,"(0.0, 0.0, 0.0, 0.0, 0.0, 0.0, 0.0, 0.0, 0.0)"
2022/11/28/22:55:18.252435,46,1669697718,251963853,RU_myo,0.4413364033444176,-0.21526669818776945,-0.6248044200023237,-0.607043544138235,"(0.0, 0.0, 0.0, 0.0, 0.0, 0.0, 0.0, 0.0, 0.0)",-53.875,56.0,-30.4375,"(0.0, 0.0, 0.0, 0.0, 0.0, 0.0, 0.0, 0.0, 0.0)",0.81640625,0.703125,0.27392578125,"(0.0, 0.0, 0.0, 0.0, 0.0, 0.0, 0.0, 0.0, 0.0)"
2022/11/28/22:55:18.275338,47,1669697718,274897813,RU_myo,0.442738927997345,-0.2076979007409657,-0.6138776037768536,-0.6196758114084704,"(0.0, 0.0, 0.0, 0.0, 0.0, 0.0, 0.0, 0.0, 0.0)",-59.0625,69.0,-35.9375,"(0.0, 0.0, 0.0, 0.0, 0.0, 0.0, 0.0, 0.0, 0.0)",0.8623046875,0.7080078125,0.27490234375,"(0.0, 0.0, 0.0, 0.0, 0.0, 0.0, 0.0, 0.0, 0.0)"
2022/11/28/22:55:18.297767,48,1669697718,297325611,RU_myo,0.4444530522802116,-0.20013204592513237,-0.6012506204356447,-0.6331716512434654,"(0.0, 0.0, 0.0, 0.0, 0.0, 0.0, 0.0, 0.0, 0.0)",-71.125,79.5625,-37.1875,"(0.0, 0.0, 0.0, 0.0, 0.0, 0.0, 0.0, 0.0, 0.0)",0.86865234375,0.6904296875,0.2373046875,"(0.0, 0.0, 0.0, 0.0, 0.0, 0.0, 0.0, 0.0, 0.0)"
2022/11/28/22:55:18.311932,49,1669697718,311493158,RU_myo,0.44609226298752747,-0.19262104008600858,-0.5872622457882049,-0.6473189959290897,"(0.0, 0.0, 0.0, 0.0, 0.0, 0.0, 0.0, 0.0, 0.0)",-80.4375,86.1875,-36.5,"(0.0, 0.0, 0.0, 0.0, 0.0, 0.0, 0.0, 0.0, 0.0)",0.82275390625,0.6904296875,0.22412109375,"(0.0, 0.0, 0.0, 0.0, 0.0, 0.0, 0.0, 0.0, 0.0)"
2022/11/28/22:55:18.335234,50,1669697718,334729433,RU_myo,0.4478640166285024,-0.18474848437373625,-0.5726165445637244,-0.6613592919305603,"(0.0, 0.0, 0.0, 0.0, 0.0, 0.0, 0.0, 0.0, 0.0)",-81.75,89.8125,-36.5625,"(0.0, 0.0, 0.0, 0.0, 0.0, 0.0, 0.0, 0.0, 0.0)",0.8232421875,0.697265625,0.26953125,"(0.0, 0.0, 0.0, 0.0, 0.0, 0.0, 0.0, 0.0, 0.0)"
2022/11/28/22:55:18.357609,51,1669697718,357196331,RU_myo,0.4494548621892326,-0.1765715530029128,-0.5584617041053066,-0.6744874636139611,"(0.0, 0.0, 0.0, 0.0, 0.0, 0.0, 0.0, 0.0, 0.0)",-76.625,89.375,-39.125,"(0.0, 0.0, 0.0, 0.0, 0.0, 0.0, 0.0, 0.0, 0.0)",0.83837890625,0.68505859375,0.3056640625,"(0.0, 0.0, 0.0, 0.0, 0.0, 0.0, 0.0, 0.0, 0.0)"
2022/11/28/22:55:18.372307,52,1669697718,371795892,RU_myo,0.45054604452282304,-0.1677188472431208,-0.5463679477876336,-0.685828488526546,"(0.0, 0.0, 0.0, 0.0, 0.0, 0.0, 0.0, 0.0, 0.0)",-62.0,83.625,-41.1875,"(0.0, 0.0, 0.0, 0.0, 0.0, 0.0, 0.0, 0.0, 0.0)",0.77294921875,0.63818359375,0.30322265625,"(0.0, 0.0, 0.0, 0.0, 0.0, 0.0, 0.0, 0.0, 0.0)"
2022/11/28/22:55:18.395286,53,1669697718,394743442,RU_myo,0.4512808417623712,-0.1582595648755516,-0.5368496462188014,-0.6950481777102899,"(0.0, 0.0, 0.0, 0.0, 0.0, 0.0, 0.0, 0.0, 0.0)",-45.0625,77.875,-41.1875,"(0.0, 0.0, 0.0, 0.0, 0.0, 0.0, 0.0, 0.0, 0.0)",0.72509765625,0.625,0.28564453125,"(0.0, 0.0, 0.0, 0.0, 0.0, 0.0, 0.0, 0.0, 0.0)"
2022/11/28/22:55:18.417596,54,1669697718,417219161,RU_myo,0.4518355619007101,-0.14794669756143744,-0.5294099235346156,-0.7026247451845163,"(0.0, 0.0, 0.0, 0.0, 0.0, 0.0, 0.0, 0.0, 0.0)",-31.875,74.5,-40.9375,"(0.0, 0.0, 0.0, 0.0, 0.0, 0.0, 0.0, 0.0, 0.0)",0.68212890625,0.634765625,0.27685546875,"(0.0, 0.0, 0.0, 0.0, 0.0, 0.0, 0.0, 0.0, 0.0)"
2022/11/28/22:55:18.431936,55,1669697718,431617259,RU_myo,0.4522574390833503,-0.13811856742855894,-0.5233003080567673,-0.7089028549194486,"(0.0, 0.0, 0.0, 0.0, 0.0, 0.0, 0.0, 0.0, 0.0)",-23.4375,68.6875,-39.9375,"(0.0, 0.0, 0.0, 0.0, 0.0, 0.0, 0.0, 0.0, 0.0)",0.6826171875,0.61181640625,0.2783203125,"(0.0, 0.0, 0.0, 0.0, 0.0, 0.0, 0.0, 0.0, 0.0)"
2022/11/28/22:55:18.455018,56,1669697718,454598665,RU_myo,0.45220329446996266,-0.12969793504503585,-0.5182424312787762,-0.7142236404221222,"(0.0, 0.0, 0.0, 0.0, 0.0, 0.0, 0.0, 0.0, 0.0)",-19.9375,58.5625,-37.8125,"(0.0, 0.0, 0.0, 0.0, 0.0, 0.0, 0.0, 0.0, 0.0)",0.64892578125,0.56884765625,0.271484375,"(0.0, 0.0, 0.0, 0.0, 0.0, 0.0, 0.0, 0.0, 0.0)"
2022/11/28/22:55:18.477549,57,1669697718,477093458,RU_myo,0.4518327157018983,-0.12255573323374466,-0.5148195268060938,-0.7181839207975466,"(0.0, 0.0, 0.0, 0.0, 0.0, 0.0, 0.0, 0.0, 0.0)",-11.875,46.5625,-33.4375,"(0.0, 0.0, 0.0, 0.0, 0.0, 0.0, 0.0, 0.0, 0.0)",0.60693359375,0.5224609375,0.2666015625,"(0.0, 0.0, 0.0, 0.0, 0.0, 0.0, 0.0, 0.0, 0.0)"
2022/11/28/22:55:18.491942,58,1669697718,491487979,RU_myo,0.45177164915362067,-0.11675752024194493,-0.5128053764102568,-0.7206252177191028,"(0.0, 0.0, 0.0, 0.0, 0.0, 0.0, 0.0, 0.0, 0.0)",-5.25,37.625,-26.25,"(0.0, 0.0, 0.0, 0.0, 0.0, 0.0, 0.0, 0.0, 0.0)",0.6201171875,0.54052734375,0.27783203125,"(0.0, 0.0, 0.0, 0.0, 0.0, 0.0, 0.0, 0.0, 0.0)"
2022/11/28/22:55:18.515634,59,1669697718,515108108,RU_myo,0.45146050028000767,-0.11120197803300987,-0.5115779252868764,-0.7225687255394093,"(0.0, 0.0, 0.0, 0.0, 0.0, 0.0, 0.0, 0.0, 0.0)",-1.5,32.5625,-22.9375,"(0.0, 0.0, 0.0, 0.0, 0.0, 0.0, 0.0, 0.0, 0.0)",0.609375,0.595703125,0.31103515625,"(0.0, 0.0, 0.0, 0.0, 0.0, 0.0, 0.0, 0.0, 0.0)"
2022/11/28/22:55:18.537718,60,1669697718,537253618,RU_myo,0.45114857073841225,-0.10637878230479607,-0.5110819982905119,-0.7238395629001041,"(0.0, 0.0, 0.0, 0.0, 0.0, 0.0, 0.0, 0.0, 0.0)",2.25,26.0,-19.6875,"(0.0, 0.0, 0.0, 0.0, 0.0, 0.0, 0.0, 0.0, 0.0)",0.58056640625,0.57861328125,0.3154296875,"(0.0, 0.0, 0.0, 0.0, 0.0, 0.0, 0.0, 0.0, 0.0)"
2022/11/28/22:55:18.558678,61,1669697718,558287858,RU_myo,0.4509782753772227,-0.10302494638472755,-0.5108523704029441,-0.7245925139096479,"(0.0, 0.0, 0.0, 0.0, 0.0, 0.0, 0.0, 0.0, 0.0)",2.6875,17.8125,-13.625,"(0.0, 0.0, 0.0, 0.0, 0.0, 0.0, 0.0, 0.0, 0.0)",0.56005859375,0.56884765625,0.3427734375,"(0.0, 0.0, 0.0, 0.0, 0.0, 0.0, 0.0, 0.0, 0.0)"
2022/11/28/22:55:18.575183,62,1669697718,574844121,RU_myo,0.45103838670044455,-0.09966788707467197,-0.5110344265010585,-0.7248962001138267,"(0.0, 0.0, 0.0, 0.0, 0.0, 0.0, 0.0, 0.0, 0.0)",7.75,14.25,-10.75,"(0.0, 0.0, 0.0, 0.0, 0.0, 0.0, 0.0, 0.0, 0.0)",0.55517578125,0.59375,0.40478515625,"(0.0, 0.0, 0.0, 0.0, 0.0, 0.0, 0.0, 0.0, 0.0)"
2022/11/28/22:55:18.598578,63,1669697718,597236633,RU_myo,0.45176032196805216,-0.09704119318146487,-0.5108394886345037,-0.7249404356034211,"(0.0, 0.0, 0.0, 0.0, 0.0, 0.0, 0.0, 0.0, 0.0)",6.6875,13.6875,-5.1875,"(0.0, 0.0, 0.0, 0.0, 0.0, 0.0, 0.0, 0.0, 0.0)",0.55712890625,0.591796875,0.419921875,"(0.0, 0.0, 0.0, 0.0, 0.0, 0.0, 0.0, 0.0, 0.0)"
2022/11/28/22:55:18.618797,64,1669697718,618049860,RU_myo,0.45294439518990615,-0.09515433393088044,-0.5098294748714844,-0.7251626949536821,"(0.0, 0.0, 0.0, 0.0, 0.0, 0.0, 0.0, 0.0, 0.0)",0.4375,14.6875,-1.4375,"(0.0, 0.0, 0.0, 0.0, 0.0, 0.0, 0.0, 0.0, 0.0)",0.59716796875,0.62939453125,0.4423828125,"(0.0, 0.0, 0.0, 0.0, 0.0, 0.0, 0.0, 0.0, 0.0)"
2022/11/28/22:55:18.635191,65,1669697718,634647369,RU_myo,0.4536562988140269,-0.09319698214570417,-0.5092571178937496,-0.7253740227908932,"(0.0, 0.0, 0.0, 0.0, 0.0, 0.0, 0.0, 0.0, 0.0)",1.375,12.1875,-1.75,"(0.0, 0.0, 0.0, 0.0, 0.0, 0.0, 0.0, 0.0, 0.0)",0.587890625,0.671875,0.45263671875,"(0.0, 0.0, 0.0, 0.0, 0.0, 0.0, 0.0, 0.0, 0.0)"
2022/11/28/22:55:18.657569,66,1669697718,657209396,RU_myo,0.4541489320516306,-0.09185514618165623,-0.50852961992396,-0.7257472048146673,"(0.0, 0.0, 0.0, 0.0, 0.0, 0.0, 0.0, 0.0, 0.0)",-2.25,8.8125,-0.0625,"(0.0, 0.0, 0.0, 0.0, 0.0, 0.0, 0.0, 0.0, 0.0)",0.56298828125,0.68017578125,0.4462890625,"(0.0, 0.0, 0.0, 0.0, 0.0, 0.0, 0.0, 0.0, 0.0)"
2022/11/28/22:55:18.672204,67,1669697718,671799659,RU_myo,0.4545801251849111,-0.09094043857753994,-0.5072523389382111,-0.7264859331466161,"(0.0, 0.0, 0.0, 0.0, 0.0, 0.0, 0.0, 0.0, 0.0)",-7.25,8.6875,0.625,"(0.0, 0.0, 0.0, 0.0, 0.0, 0.0, 0.0, 0.0, 0.0)",0.57177734375,0.6982421875,0.44775390625,"(0.0, 0.0, 0.0, 0.0, 0.0, 0.0, 0.0, 0.0, 0.0)"
2022/11/28/22:55:18.695345,68,1669697718,694800376,RU_myo,0.4548907601737501,-0.0902701508516002,-0.5058546384435851,-0.7273491465169166,"(0.0, 0.0, 0.0, 0.0, 0.0, 0.0, 0.0, 0.0, 0.0)",-8.4375,7.875,-0.0625,"(0.0, 0.0, 0.0, 0.0, 0.0, 0.0, 0.0, 0.0, 0.0)",0.57275390625,0.685546875,0.45361328125,"(0.0, 0.0, 0.0, 0.0, 0.0, 0.0, 0.0, 0.0, 0.0)"
2022/11/28/22:55:18.718014,69,1669697718,717571020,RU_myo,0.4551274725014427,-0.09014661081998536,-0.5046257131074062,-0.7280696821067064,"(0.0, 0.0, 0.0, 0.0, 0.0, 0.0, 0.0, 0.0, 0.0)",-7.75,5.0625,0.9375,"(0.0, 0.0, 0.0, 0.0, 0.0, 0.0, 0.0, 0.0, 0.0)",0.56884765625,0.66064453125,0.45361328125,"(0.0, 0.0, 0.0, 0.0, 0.0, 0.0, 0.0, 0.0, 0.0)"
2022/11/28/22:55:18.731709,70,1669697718,731422424,RU_myo,0.4553075118801541,-0.08959670609116169,-0.5047443864944872,-0.7279427204014206,"(0.0, 0.0, 0.0, 0.0, 0.0, 0.0, 0.0, 0.0, 0.0)",1.0,2.4375,0.875,"(0.0, 0.0, 0.0, 0.0, 0.0, 0.0, 0.0, 0.0, 0.0)",0.55810546875,0.65234375,0.447265625,"(0.0, 0.0, 0.0, 0.0, 0.0, 0.0, 0.0, 0.0, 0.0)"
2022/11/28/22:55:18.755082,71,1669697718,754601478,RU_myo,0.4553723388141553,-0.08868194723186806,-0.505542029539961,-0.7274605155241813,"(0.0, 0.0, 0.0, 0.0, 0.0, 0.0, 0.0, 0.0, 0.0)",4.1875,2.125,1.5,"(0.0, 0.0, 0.0, 0.0, 0.0, 0.0, 0.0, 0.0, 0.0)",0.5634765625,0.7080078125,0.44677734375,"(0.0, 0.0, 0.0, 0.0, 0.0, 0.0, 0.0, 0.0, 0.0)"
2022/11/28/22:55:18.777488,72,1669697718,777169227,RU_myo,0.45538845548649626,-0.08789161987676647,-0.5058040652213637,-0.7273641903273792,"(0.0, 0.0, 0.0, 0.0, 0.0, 0.0, 0.0, 0.0, 0.0)",0.5625,2.5625,1.4375,"(0.0, 0.0, 0.0, 0.0, 0.0, 0.0, 0.0, 0.0, 0.0)",0.57470703125,0.7265625,0.46142578125,"(0.0, 0.0, 0.0, 0.0, 0.0, 0.0, 0.0, 0.0, 0.0)"
2022/11/28/22:55:18.798851,73,1669697718,798309564,RU_myo,0.45525164593907513,-0.08721740207091278,-0.5057266574944599,-0.7275847796272576,"(0.0, 0.0, 0.0, 0.0, 0.0, 0.0, 0.0, 0.0, 0.0)",-1.25,2.3125,-0.0625,"(0.0, 0.0, 0.0, 0.0, 0.0, 0.0, 0.0, 0.0, 0.0)",0.56689453125,0.70263671875,0.46435546875,"(0.0, 0.0, 0.0, 0.0, 0.0, 0.0, 0.0, 0.0, 0.0)"
2022/11/28/22:55:18.815418,74,1669697718,814756155,RU_myo,0.4550730612290234,-0.08648585404526907,-0.5059147806501307,-0.7276530359405066,"(0.0, 0.0, 0.0, 0.0, 0.0, 0.0, 0.0, 0.0, 0.0)",1.4375,1.25,-1.4375,"(0.0, 0.0, 0.0, 0.0, 0.0, 0.0, 0.0, 0.0, 0.0)",0.5634765625,0.67919921875,0.4697265625,"(0.0, 0.0, 0.0, 0.0, 0.0, 0.0, 0.0, 0.0, 0.0)"
2022/11/28/22:55:18.838182,75,1669697718,837817192,RU_myo,0.4550536773806507,-0.08581081952752077,-0.5064425180934334,-0.7273779140320005,"(0.0, 0.0, 0.0, 0.0, 0.0, 0.0, 0.0, 0.0, 0.0)",4.125,1.3125,-0.625,"(0.0, 0.0, 0.0, 0.0, 0.0, 0.0, 0.0, 0.0, 0.0)",0.57568359375,0.673828125,0.46826171875,"(0.0, 0.0, 0.0, 0.0, 0.0, 0.0, 0.0, 0.0, 0.0)"
2022/11/28/22:55:18.858580,76,1669697718,858071565,RU_myo,0.45519322338474716,-0.08477653355878437,-0.5068892089313926,-0.7271006798313882,"(0.0, 0.0, 0.0, 0.0, 0.0, 0.0, 0.0, 0.0, 0.0)",4.625,2.75,-0.125,"(0.0, 0.0, 0.0, 0.0, 0.0, 0.0, 0.0, 0.0, 0.0)",0.56982421875,0.68505859375,0.47265625,"(0.0, 0.0, 0.0, 0.0, 0.0, 0.0, 0.0, 0.0, 0.0)"
2022/11/28/22:55:18.875604,77,1669697718,874796628,RU_myo,0.45520541916914226,-0.08404637465753673,-0.5071469332094936,-0.7269980889948583,"(0.0, 0.0, 0.0, 0.0, 0.0, 0.0, 0.0, 0.0, 0.0)",1.6875,2.5,-0.1875,"(0.0, 0.0, 0.0, 0.0, 0.0, 0.0, 0.0, 0.0, 0.0)",0.5693359375,0.6845703125,0.45703125,"(0.0, 0.0, 0.0, 0.0, 0.0, 0.0, 0.0, 0.0, 0.0)"
2022/11/28/22:55:18.897380,78,1669697718,897101640,RU_myo,0.4548751607794986,-0.08428587106352979,-0.5069358762155528,-0.7273242038117919,"(0.0, 0.0, 0.0, 0.0, 0.0, 0.0, 0.0, 0.0, 0.0)",-4.25,-0.5625,-0.5,"(0.0, 0.0, 0.0, 0.0, 0.0, 0.0, 0.0, 0.0, 0.0)",0.58447265625,0.68505859375,0.455078125,"(0.0, 0.0, 0.0, 0.0, 0.0, 0.0, 0.0, 0.0, 0.0)"
2022/11/28/22:55:18.918378,79,1669697718,917837381,RU_myo,0.4546291959330615,-0.08489585334177588,-0.5064455722717874,-0.7277484940670996,"(0.0, 0.0, 0.0, 0.0, 0.0, 0.0, 0.0, 0.0, 0.0)",-4.875,-2.0,-0.125,"(0.0, 0.0, 0.0, 0.0, 0.0, 0.0, 0.0, 0.0, 0.0)",0.57861328125,0.66064453125,0.474609375,"(0.0, 0.0, 0.0, 0.0, 0.0, 0.0, 0.0, 0.0, 0.0)"
2022/11/28/22:55:18.934722,80,1669697718,934407472,RU_myo,0.45464424564987943,-0.08532590353316304,-0.5059740631544503,-0.7280167219911078,"(0.0, 0.0, 0.0, 0.0, 0.0, 0.0, 0.0, 0.0, 0.0)",-3.5625,-1.25,1.6875,"(0.0, 0.0, 0.0, 0.0, 0.0, 0.0, 0.0, 0.0, 0.0)",0.56787109375,0.66162109375,0.48046875,"(0.0, 0.0, 0.0, 0.0, 0.0, 0.0, 0.0, 0.0, 0.0)"
2022/11/28/22:55:18.957543,81,1669697718,957161188,RU_myo,0.45500658839647495,-0.08556931414243567,-0.5051763289279173,-0.7283157101723857,"(0.0, 0.0, 0.0, 0.0, 0.0, 0.0, 0.0, 0.0, 0.0)",-5.1875,1.3125,3.375,"(0.0, 0.0, 0.0, 0.0, 0.0, 0.0, 0.0, 0.0, 0.0)",0.57080078125,0.68310546875,0.4833984375,"(0.0, 0.0, 0.0, 0.0, 0.0, 0.0, 0.0, 0.0, 0.0)"
2022/11/28/22:55:18.978514,82,1669697718,978065967,RU_myo,0.45580303074612966,-0.08618021952511182,-0.5032875992946686,-0.7290529194245472,"(0.0, 0.0, 0.0, 0.0, 0.0, 0.0, 0.0, 0.0, 0.0)",-10.375,4.125,4.5625,"(0.0, 0.0, 0.0, 0.0, 0.0, 0.0, 0.0, 0.0, 0.0)",0.5927734375,0.67431640625,0.5146484375,"(0.0, 0.0, 0.0, 0.0, 0.0, 0.0, 0.0, 0.0, 0.0)"
2022/11/28/22:55:18.995158,83,1669697718,994768619,RU_myo,0.4569530212612413,-0.08654459518477897,-0.49998118741446357,-0.7305633317079014,"(0.0, 0.0, 0.0, 0.0, 0.0, 0.0, 0.0, 0.0, 0.0)",-16.375,8.5625,4.1875,"(0.0, 0.0, 0.0, 0.0, 0.0, 0.0, 0.0, 0.0, 0.0)",0.59619140625,0.68212890625,0.55224609375,"(0.0, 0.0, 0.0, 0.0, 0.0, 0.0, 0.0, 0.0, 0.0)"
2022/11/28/22:55:19.017581,84,1669697719,17047882,RU_myo,0.4584798068337763,-0.08544618338222669,-0.49607612752195607,-0.732395857561943,"(0.0, 0.0, 0.0, 0.0, 0.0, 0.0, 0.0, 0.0, 0.0)",-15.0,15.8125,2.4375,"(0.0, 0.0, 0.0, 0.0, 0.0, 0.0, 0.0, 0.0, 0.0)",0.6015625,0.72265625,0.61474609375,"(0.0, 0.0, 0.0, 0.0, 0.0, 0.0, 0.0, 0.0, 0.0)"
2022/11/28/22:55:19.038619,85,1669697719,38061618,RU_myo,0.4611121120011806,-0.08215180711496876,-0.49144602592104647,-0.7342394053440374,"(0.0, 0.0, 0.0, 0.0, 0.0, 0.0, 0.0, 0.0, 0.0)",-10.25,28.9375,0.75,"(0.0, 0.0, 0.0, 0.0, 0.0, 0.0, 0.0, 0.0, 0.0)",0.61083984375,0.73291015625,0.66845703125,"(0.0, 0.0, 0.0, 0.0, 0.0, 0.0, 0.0, 0.0, 0.0)"
2022/11/28/22:55:19.055460,86,1669697719,54876565,RU_myo,0.46440199175759694,-0.07653569426521574,-0.4855805291659142,-0.7366713156149552,"(0.0, 0.0, 0.0, 0.0, 0.0, 0.0, 0.0, 0.0, 0.0)",-11.0625,43.375,-2.4375,"(0.0, 0.0, 0.0, 0.0, 0.0, 0.0, 0.0, 0.0, 0.0)",0.58984375,0.7578125,0.69921875,"(0.0, 0.0, 0.0, 0.0, 0.0, 0.0, 0.0, 0.0, 0.0)"
2022/11/28/22:55:19.077525,87,1669697719,77188014,RU_myo,0.4678823013076005,-0.06921191360328971,-0.4789293527733813,-0.7395421138721883,"(0.0, 0.0, 0.0, 0.0, 0.0, 0.0, 0.0, 0.0, 0.0)",-10.625,53.375,-7.5,"(0.0, 0.0, 0.0, 0.0, 0.0, 0.0, 0.0, 0.0, 0.0)",0.61767578125,0.79443359375,0.7509765625,"(0.0, 0.0, 0.0, 0.0, 0.0, 0.0, 0.0, 0.0, 0.0)"
2022/11/28/22:55:19.098668,88,1669697719,98133563,RU_myo,0.4703815838233339,-0.05987340518109389,-0.47270083906990024,-0.7427720092292687,"(0.0, 0.0, 0.0, 0.0, 0.0, 0.0, 0.0, 0.0, 0.0)",-7.3125,58.75,-16.5625,"(0.0, 0.0, 0.0, 0.0, 0.0, 0.0, 0.0, 0.0, 0.0)",0.5986328125,0.84912109375,0.763671875,"(0.0, 0.0, 0.0, 0.0, 0.0, 0.0, 0.0, 0.0, 0.0)"
2022/11/28/22:55:19.114396,89,1669697719,114082574,RU_myo,0.4722189073583315,-0.050658096562933325,-0.4656272514200221,-0.7467491704186617,"(0.0, 0.0, 0.0, 0.0, 0.0, 0.0, 0.0, 0.0, 0.0)",-15.9375,61.25,-20.875,"(0.0, 0.0, 0.0, 0.0, 0.0, 0.0, 0.0, 0.0, 0.0)",0.5830078125,0.853515625,0.72802734375,"(0.0, 0.0, 0.0, 0.0, 0.0, 0.0, 0.0, 0.0, 0.0)"
2022/11/28/22:55:19.137829,90,1669697719,137299776,RU_myo,0.4744694749977356,-0.0431502339623616,-0.4541455317028751,-0.7528403619883032,"(0.0, 0.0, 0.0, 0.0, 0.0, 0.0, 0.0, 0.0, 0.0)",-44.3125,68.9375,-21.75,"(0.0, 0.0, 0.0, 0.0, 0.0, 0.0, 0.0, 0.0, 0.0)",0.58203125,0.81689453125,0.7431640625,"(0.0, 0.0, 0.0, 0.0, 0.0, 0.0, 0.0, 0.0, 0.0)"
2022/11/28/22:55:19.158435,91,1669697719,157958507,RU_myo,0.476670495149131,-0.036803112493588475,-0.43944014917717583,-0.7604755914927237,"(0.0, 0.0, 0.0, 0.0, 0.0, 0.0, 0.0, 0.0, 0.0)",-63.8125,72.9375,-23.125,"(0.0, 0.0, 0.0, 0.0, 0.0, 0.0, 0.0, 0.0, 0.0)",0.5478515625,0.75439453125,0.765625,"(0.0, 0.0, 0.0, 0.0, 0.0, 0.0, 0.0, 0.0, 0.0)"
2022/11/28/22:55:19.174417,92,1669697719,174110412,RU_myo,0.4795937647568123,-0.032469315710183785,-0.42448137361715826,-0.7673011975722378,"(0.0, 0.0, 0.0, 0.0, 0.0, 0.0, 0.0, 0.0, 0.0)",-68.6875,69.8125,-16.0,"(0.0, 0.0, 0.0, 0.0, 0.0, 0.0, 0.0, 0.0, 0.0)",0.52978515625,0.64892578125,0.69580078125,"(0.0, 0.0, 0.0, 0.0, 0.0, 0.0, 0.0, 0.0, 0.0)"
2022/11/28/22:55:19.197723,93,1669697719,197296380,RU_myo,0.4846856928078944,-0.030395853799059493,-0.4073532695881989,-0.7734463038989596,"(0.0, 0.0, 0.0, 0.0, 0.0, 0.0, 0.0, 0.0, 0.0)",-79.125,75.5,-4.75,"(0.0, 0.0, 0.0, 0.0, 0.0, 0.0, 0.0, 0.0, 0.0)",0.52294921875,0.44970703125,0.60546875,"(0.0, 0.0, 0.0, 0.0, 0.0, 0.0, 0.0, 0.0, 0.0)"
2022/11/28/22:55:19.220552,94,1669697719,219832658,RU_myo,0.4911974114132172,-0.02783126486138507,-0.39110251147314806,-0.7778106127050248,"(0.0, 0.0, 0.0, 0.0, 0.0, 0.0, 0.0, 0.0, 0.0)",-66.375,80.0,2.1875,"(0.0, 0.0, 0.0, 0.0, 0.0, 0.0, 0.0, 0.0, 0.0)",0.50830078125,0.3154296875,0.5693359375,"(0.0, 0.0, 0.0, 0.0, 0.0, 0.0, 0.0, 0.0, 0.0)"
2022/11/28/22:55:19.234024,95,1669697719,233713626,RU_myo,0.4988331404688282,-0.02008027691352557,-0.3811590556989884,-0.778125988968199,"(0.0, 0.0, 0.0, 0.0, 0.0, 0.0, 0.0, 0.0, 0.0)",-16.125,86.4375,8.0,"(0.0, 0.0, 0.0, 0.0, 0.0, 0.0, 0.0, 0.0, 0.0)",0.4658203125,0.32763671875,0.5576171875,"(0.0, 0.0, 0.0, 0.0, 0.0, 0.0, 0.0, 0.0, 0.0)"
2022/11/28/22:55:19.257356,96,1669697719,256940603,RU_myo,0.5069385661465511,-0.009215955151472334,-0.3801123753865543,-0.7735909373835221,"(0.0, 0.0, 0.0, 0.0, 0.0, 0.0, 0.0, 0.0, 0.0)",35.3125,79.125,18.0625,"(0.0, 0.0, 0.0, 0.0, 0.0, 0.0, 0.0, 0.0, 0.0)",0.427734375,0.35302734375,0.38671875,"(0.0, 0.0, 0.0, 0.0, 0.0, 0.0, 0.0, 0.0, 0.0)"
2022/11/28/22:55:19.280496,97,1669697719,279713392,RU_myo,0.5145163639083508,0.0007324076354567271,-0.3823778196780329,-0.7675021679890286,"(0.0, 0.0, 0.0, 0.0, 0.0, 0.0, 0.0, 0.0, 0.0)",42.6875,66.3125,24.625,"(0.0, 0.0, 0.0, 0.0, 0.0, 0.0, 0.0, 0.0, 0.0)",0.4306640625,0.4638671875,0.31982421875,"(0.0, 0.0, 0.0, 0.0, 0.0, 0.0, 0.0, 0.0, 0.0)"
2022/11/28/22:55:19.294100,98,1669697719,293835878,RU_myo,0.5203863683525403,0.010437024277302883,-0.38800095515096156,-0.760621032419582,"(0.0, 0.0, 0.0, 0.0, 0.0, 0.0, 0.0, 0.0, 0.0)",52.5,47.8125,25.875,"(0.0, 0.0, 0.0, 0.0, 0.0, 0.0, 0.0, 0.0, 0.0)",0.361328125,0.59716796875,0.3212890625,"(0.0, 0.0, 0.0, 0.0, 0.0, 0.0, 0.0, 0.0, 0.0)"
2022/11/28/22:55:19.317633,99,1669697719,317245960,RU_myo,0.5247680768743721,0.017394615248801586,-0.39446104685264793,-0.7541328632076927,"(0.0, 0.0, 0.0, 0.0, 0.0, 0.0, 0.0, 0.0, 0.0)",46.875,27.75,26.8125,"(0.0, 0.0, 0.0, 0.0, 0.0, 0.0, 0.0, 0.0, 0.0)",0.3203125,0.6259765625,0.3212890625,"(0.0, 0.0, 0.0, 0.0, 0.0, 0.0, 0.0, 0.0, 0.0)"
2022/11/28/22:55:19.340699,100,1669697719,339908838,RU_myo,0.5279444242763097,0.02050743659616648,-0.39830812865054305,-0.749803150547337,"(0.0, 0.0, 0.0, 0.0, 0.0, 0.0, 0.0, 0.0, 0.0)",19.5625,15.125,23.9375,"(0.0, 0.0, 0.0, 0.0, 0.0, 0.0, 0.0, 0.0, 0.0)",0.34619140625,0.6884765625,0.39501953125,"(0.0, 0.0, 0.0, 0.0, 0.0, 0.0, 0.0, 0.0, 0.0)"
2022/11/28/22:55:19.354089,101,1669697719,353814601,RU_myo,0.5300684720202484,0.021239358464369196,-0.4008623746953358,-0.7469174393303166,"(0.0, 0.0, 0.0, 0.0, 0.0, 0.0, 0.0, 0.0, 0.0)",6.9375,4.3125,20.0625,"(0.0, 0.0, 0.0, 0.0, 0.0, 0.0, 0.0, 0.0, 0.0)",0.369140625,0.71728515625,0.49462890625,"(0.0, 0.0, 0.0, 0.0, 0.0, 0.0, 0.0, 0.0, 0.0)"
2022/11/28/22:55:19.377538,102,1669697719,377084970,RU_myo,0.5312964464264341,0.019896914593339175,-0.4025768363732061,-0.7451577615646564,"(0.0, 0.0, 0.0, 0.0, 0.0, 0.0, 0.0, 0.0, 0.0)",-2.9375,-3.8125,16.1875,"(0.0, 0.0, 0.0, 0.0, 0.0, 0.0, 0.0, 0.0, 0.0)",0.41259765625,0.71923828125,0.55712890625,"(0.0, 0.0, 0.0, 0.0, 0.0, 0.0, 0.0, 0.0, 0.0)"
2022/11/28/22:55:19.399807,103,1669697719,399505853,RU_myo,0.531974390857122,0.01647924340654233,-0.4029480184073794,-0.744556630801518,"(0.0, 0.0, 0.0, 0.0, 0.0, 0.0, 0.0, 0.0, 0.0)",-15.5,-10.375,14.125,"(0.0, 0.0, 0.0, 0.0, 0.0, 0.0, 0.0, 0.0, 0.0)",0.41748046875,0.6943359375,0.5673828125,"(0.0, 0.0, 0.0, 0.0, 0.0, 0.0, 0.0, 0.0, 0.0)"
2022/11/28/22:55:19.413886,104,1669697719,413649082,RU_myo,0.5323323974800116,0.012878025208470815,-0.40251457938324653,-0.7446061968878859,"(0.0, 0.0, 0.0, 0.0, 0.0, 0.0, 0.0, 0.0, 0.0)",-17.25,-11.25,10.25,"(0.0, 0.0, 0.0, 0.0, 0.0, 0.0, 0.0, 0.0, 0.0)",0.4560546875,0.705078125,0.6826171875,"(0.0, 0.0, 0.0, 0.0, 0.0, 0.0, 0.0, 0.0, 0.0)"
2022/11/28/22:55:19.437628,105,1669697719,437289714,RU_myo,0.5317298270580888,0.012328905540143932,-0.4046566521344271,-0.7438846570459121,"(0.0, 0.0, 0.0, 0.0, 0.0, 0.0, 0.0, 0.0, 0.0)",2.9375,-9.5625,3.8125,"(0.0, 0.0, 0.0, 0.0, 0.0, 0.0, 0.0, 0.0, 0.0)",0.482421875,0.8271484375,0.765625,"(0.0, 0.0, 0.0, 0.0, 0.0, 0.0, 0.0, 0.0, 0.0)"
2022/11/28/22:55:19.460151,106,1669697719,459686994,RU_myo,0.5313555213486458,0.01196251805471337,-0.4049556494542,-0.7439953830967141,"(0.0, 0.0, 0.0, 0.0, 0.0, 0.0, 0.0, 0.0, 0.0)",-0.0625,-5.1875,0.875,"(0.0, 0.0, 0.0, 0.0, 0.0, 0.0, 0.0, 0.0, 0.0)",0.4462890625,0.71923828125,0.78759765625,"(0.0, 0.0, 0.0, 0.0, 0.0, 0.0, 0.0, 0.0, 0.0)"
2022/11/28/22:55:19.480826,107,1669697719,480486869,RU_myo,0.5317903560865037,0.010619938248485212,-0.40429006297681636,-0.7440670528004782,"(0.0, 0.0, 0.0, 0.0, 0.0, 0.0, 0.0, 0.0, 0.0)",-4.5,-2.5625,2.8125,"(0.0, 0.0, 0.0, 0.0, 0.0, 0.0, 0.0, 0.0, 0.0)",0.46337890625,0.62890625,0.74853515625,"(0.0, 0.0, 0.0, 0.0, 0.0, 0.0, 0.0, 0.0, 0.0)"
2022/11/28/22:55:19.497517,108,1669697719,497222423,RU_myo,0.5320909490244725,0.011352250116833204,-0.40556829046428305,-0.7431451474331242,"(0.0, 0.0, 0.0, 0.0, 0.0, 0.0, 0.0, 0.0, 0.0)",10.25,-0.375,2.0625,"(0.0, 0.0, 0.0, 0.0, 0.0, 0.0, 0.0, 0.0, 0.0)",0.44140625,0.646484375,0.71728515625,"(0.0, 0.0, 0.0, 0.0, 0.0, 0.0, 0.0, 0.0, 0.0)"
2022/11/28/22:55:19.520606,109,1669697719,520149230,RU_myo,0.5319641923354567,0.012511778273149223,-0.40727364105719394,-0.7422841334538578,"(0.0, 0.0, 0.0, 0.0, 0.0, 0.0, 0.0, 0.0, 0.0)",10.25,-0.0625,0.625,"(0.0, 0.0, 0.0, 0.0, 0.0, 0.0, 0.0, 0.0, 0.0)",0.42724609375,0.67822265625,0.677734375,"(0.0, 0.0, 0.0, 0.0, 0.0, 0.0, 0.0, 0.0, 0.0)"
2022/11/28/22:55:19.534663,110,1669697719,534320116,RU_myo,0.5316140998173312,0.012451122429705575,-0.4074690850035021,-0.7424286923281305,"(0.0, 0.0, 0.0, 0.0, 0.0, 0.0, 0.0, 0.0, 0.0)",-1.875,-0.4375,-1.1875,"(0.0, 0.0, 0.0, 0.0, 0.0, 0.0, 0.0, 0.0, 0.0)",0.43310546875,0.6640625,0.66015625,"(0.0, 0.0, 0.0, 0.0, 0.0, 0.0, 0.0, 0.0, 0.0)"
2022/11/28/22:55:19.557638,111,1669697719,557189702,RU_myo,0.5313607864454328,0.01177953500849627,-0.40672964402393336,-0.7430262134374798,"(0.0, 0.0, 0.0, 0.0, 0.0, 0.0, 0.0, 0.0, 0.0)",-6.875,-0.8125,-1.6875,"(0.0, 0.0, 0.0, 0.0, 0.0, 0.0, 0.0, 0.0, 0.0)",0.42919921875,0.62353515625,0.67578125,"(0.0, 0.0, 0.0, 0.0, 0.0, 0.0, 0.0, 0.0, 0.0)"
2022/11/28/22:55:19.580492,112,1669697719,579733610,RU_myo,0.5311220948753714,0.01110827640396663,-0.40581829565919847,-0.7437052086941395,"(0.0, 0.0, 0.0, 0.0, 0.0, 0.0, 0.0, 0.0, 0.0)",-6.5625,-0.875,-1.875,"(0.0, 0.0, 0.0, 0.0, 0.0, 0.0, 0.0, 0.0, 0.0)",0.41357421875,0.607421875,0.6806640625,"(0.0, 0.0, 0.0, 0.0, 0.0, 0.0, 0.0, 0.0, 0.0)"
2022/11/28/22:55:19.594286,113,1669697719,593993425,RU_myo,0.530920990855241,0.01061964046543418,-0.4051331805146672,-0.7442292864109448,"(0.0, 0.0, 0.0, 0.0, 0.0, 0.0, 0.0, 0.0, 0.0)",-5.4375,-0.5,-1.625,"(0.0, 0.0, 0.0, 0.0, 0.0, 0.0, 0.0, 0.0, 0.0)",0.419921875,0.6142578125,0.6767578125,"(0.0, 0.0, 0.0, 0.0, 0.0, 0.0, 0.0, 0.0, 0.0)"
2022/11/28/22:55:19.617543,114,1669697719,617135524,RU_myo,0.530765518060301,0.01013190846343261,-0.4046049470126191,-0.7446342364691436,"(0.0, 0.0, 0.0, 0.0, 0.0, 0.0, 0.0, 0.0, 0.0)",-4.6875,-0.0625,-1.5,"(0.0, 0.0, 0.0, 0.0, 0.0, 0.0, 0.0, 0.0, 0.0)",0.4345703125,0.62255859375,0.68310546875,"(0.0, 0.0, 0.0, 0.0, 0.0, 0.0, 0.0, 0.0, 0.0)"
2022/11/28/22:55:19.640394,115,1669697719,639930963,RU_myo,0.5308096843085541,0.010070552824067085,-0.40459208891358006,-0.7446105724461723,"(0.0, 0.0, 0.0, 0.0, 0.0, 0.0, 0.0, 0.0, 0.0)",-0.3125,0.0625,0.375,"(0.0, 0.0, 0.0, 0.0, 0.0, 0.0, 0.0, 0.0, 0.0)",0.4443359375,0.615234375,0.68359375,"(0.0, 0.0, 0.0, 0.0, 0.0, 0.0, 0.0, 0.0, 0.0)"
2022/11/28/22:55:19.655020,116,1669697719,654753208,RU_myo,0.531114041409381,0.01019260456393549,-0.405201806586633,-0.7440601331672907,"(0.0, 0.0, 0.0, 0.0, 0.0, 0.0, 0.0, 0.0, 0.0)",4.3125,0.0625,2.125,"(0.0, 0.0, 0.0, 0.0, 0.0, 0.0, 0.0, 0.0, 0.0)",0.439453125,0.6201171875,0.68310546875,"(0.0, 0.0, 0.0, 0.0, 0.0, 0.0, 0.0, 0.0, 0.0)"
2022/11/28/22:55:19.685456,117,1669697719,684968709,RU_myo,0.5312515090400389,0.01068118268405409,-0.4063121893014176,-0.7433492794805415,"(0.0, 0.0, 0.0, 0.0, 0.0, 0.0, 0.0, 0.0, 0.0)",5.6875,0.0,1.8125,"(0.0, 0.0, 0.0, 0.0, 0.0, 0.0, 0.0, 0.0, 0.0)",0.43359375,0.65771484375,0.666015625,"(0.0, 0.0, 0.0, 0.0, 0.0, 0.0, 0.0, 0.0, 0.0)"
2022/11/28/22:55:19.699797,118,1669697719,699492692,RU_myo,0.5310386554328536,0.01098574393494008,-0.4073269723432783,-0.7429414495556977,"(0.0, 0.0, 0.0, 0.0, 0.0, 0.0, 0.0, 0.0, 0.0)",3.125,-0.4375,-0.0625,"(0.0, 0.0, 0.0, 0.0, 0.0, 0.0, 0.0, 0.0, 0.0)",0.439453125,0.6630859375,0.646484375,"(0.0, 0.0, 0.0, 0.0, 0.0, 0.0, 0.0, 0.0, 0.0)"
2022/11/28/22:55:19.721796,119,1669697719,720578670,RU_myo,0.5304562613740669,0.01098632229286987,-0.4085691190470606,-0.7426753869980032,"(0.0, 0.0, 0.0, 0.0, 0.0, 0.0, 0.0, 0.0, 0.0)",2.25,-2.75,-1.6875,"(0.0, 0.0, 0.0, 0.0, 0.0, 0.0, 0.0, 0.0, 0.0)",0.44580078125,0.662109375,0.62744140625,"(0.0, 0.0, 0.0, 0.0, 0.0, 0.0, 0.0, 0.0, 0.0)"
2022/11/28/22:55:19.738412,120,1669697719,737211227,RU_myo,0.5294080825529882,0.011108170512409943,-0.4103919699200245,-0.742416407214036,"(0.0, 0.0, 0.0, 0.0, 0.0, 0.0, 0.0, 0.0, 0.0)",5.6875,-5.1875,-4.125,"(0.0, 0.0, 0.0, 0.0, 0.0, 0.0, 0.0, 0.0, 0.0)",0.44482421875,0.6484375,0.62451171875,"(0.0, 0.0, 0.0, 0.0, 0.0, 0.0, 0.0, 0.0, 0.0)"
2022/11/28/22:55:19.760114,121,1669697719,759615898,RU_myo,0.5277732590896024,0.011291552322374979,-0.41333185041688303,-0.7419465407069743,"(0.0, 0.0, 0.0, 0.0, 0.0, 0.0, 0.0, 0.0, 0.0)",11.0,-8.9375,-6.125,"(0.0, 0.0, 0.0, 0.0, 0.0, 0.0, 0.0, 0.0, 0.0)",0.44140625,0.64306640625,0.59765625,"(0.0, 0.0, 0.0, 0.0, 0.0, 0.0, 0.0, 0.0, 0.0)"
2022/11/28/22:55:19.781437,122,1669697719,780607461,RU_myo,0.5258623148477962,0.01141321412216085,-0.41765039699436735,-0.7408823862508586,"(0.0, 0.0, 0.0, 0.0, 0.0, 0.0, 0.0, 0.0, 0.0)",19.3125,-13.875,-6.8125,"(0.0, 0.0, 0.0, 0.0, 0.0, 0.0, 0.0, 0.0, 0.0)",0.4453125,0.60302734375,0.57763671875,"(0.0, 0.0, 0.0, 0.0, 0.0, 0.0, 0.0, 0.0, 0.0)"
2022/11/28/22:55:19.797437,123,1669697719,797139167,RU_myo,0.5235466229867868,0.011108123733223969,-0.42418384585662955,-0.7388122955531655,"(0.0, 0.0, 0.0, 0.0, 0.0, 0.0, 0.0, 0.0, 0.0)",30.4375,-23.0625,-4.875,"(0.0, 0.0, 0.0, 0.0, 0.0, 0.0, 0.0, 0.0, 0.0)",0.45849609375,0.60009765625,0.57421875,"(0.0, 0.0, 0.0, 0.0, 0.0, 0.0, 0.0, 0.0, 0.0)"
2022/11/28/22:55:19.820560,124,1669697719,819870471,RU_myo,0.5203703417591503,0.01055876954308386,-0.4332147180162384,-0.735818067118029,"(0.0, 0.0, 0.0, 0.0, 0.0, 0.0, 0.0, 0.0, 0.0)",40.6875,-34.25,-3.3125,"(0.0, 0.0, 0.0, 0.0, 0.0, 0.0, 0.0, 0.0, 0.0)",0.4375,0.63427734375,0.53564453125,"(0.0, 0.0, 0.0, 0.0, 0.0, 0.0, 0.0, 0.0, 0.0)"
2022/11/28/22:55:19.841244,125,1669697719,840649127,RU_myo,0.5166012507327744,0.009033197673493693,-0.4429928967176839,-0.732665573463637,"(0.0, 0.0, 0.0, 0.0, 0.0, 0.0, 0.0, 0.0, 0.0)",41.0,-42.875,-1.1875,"(0.0, 0.0, 0.0, 0.0, 0.0, 0.0, 0.0, 0.0, 0.0)",0.42529296875,0.662109375,0.52734375,"(0.0, 0.0, 0.0, 0.0, 0.0, 0.0, 0.0, 0.0, 0.0)"
2022/11/28/22:55:19.857450,126,1669697719,857133865,RU_myo,0.5129918972560622,0.00579824274114526,-0.45220189967521296,-0.7296020392384256,"(0.0, 0.0, 0.0, 0.0, 0.0, 0.0, 0.0, 0.0, 0.0)",34.9375,-47.875,1.75,"(0.0, 0.0, 0.0, 0.0, 0.0, 0.0, 0.0, 0.0, 0.0)",0.46875,0.658203125,0.5419921875,"(0.0, 0.0, 0.0, 0.0, 0.0, 0.0, 0.0, 0.0, 0.0)"
2022/11/28/22:55:19.880595,127,1669697719,879914283,RU_myo,0.5098223356137621,0.0020751777099087647,-0.4622763522014407,-0.7255187481672202,"(0.0, 0.0, 0.0, 0.0, 0.0, 0.0, 0.0, 0.0, 0.0)",39.125,-51.875,9.25,"(0.0, 0.0, 0.0, 0.0, 0.0, 0.0, 0.0, 0.0, 0.0)",0.4609375,0.6787109375,0.52294921875,"(0.0, 0.0, 0.0, 0.0, 0.0, 0.0, 0.0, 0.0, 0.0)"
2022/11/28/22:55:19.901468,128,1669697719,900596618,RU_myo,0.5062746506660429,-0.00335685422382548,-0.4719126701567021,-0.7217846918356388,"(0.0, 0.0, 0.0, 0.0, 0.0, 0.0, 0.0, 0.0, 0.0)",29.5625,-57.4375,11.375,"(0.0, 0.0, 0.0, 0.0, 0.0, 0.0, 0.0, 0.0, 0.0)",0.4775390625,0.6962890625,0.47021484375,"(0.0, 0.0, 0.0, 0.0, 0.0, 0.0, 0.0, 0.0, 0.0)"
2022/11/28/22:55:19.917700,129,1669697719,917271614,RU_myo,0.5025567957684189,-0.011047216423862501,-0.48034029423092756,-0.718740445344778,"(0.0, 0.0, 0.0, 0.0, 0.0, 0.0, 0.0, 0.0, 0.0)",18.0,-63.75,13.0625,"(0.0, 0.0, 0.0, 0.0, 0.0, 0.0, 0.0, 0.0, 0.0)",0.51513671875,0.6748046875,0.478515625,"(0.0, 0.0, 0.0, 0.0, 0.0, 0.0, 0.0, 0.0, 0.0)"
2022/11/28/22:55:19.940945,130,1669697719,940008640,RU_myo,0.49877390290494705,-0.01885965932423258,-0.4898628664604876,-0.7147749849387952,"(0.0, 0.0, 0.0, 0.0, 0.0, 0.0, 0.0, 0.0, 0.0)",27.0625,-67.5,13.5,"(0.0, 0.0, 0.0, 0.0, 0.0, 0.0, 0.0, 0.0, 0.0)",0.52734375,0.60986328125,0.4560546875,"(0.0, 0.0, 0.0, 0.0, 0.0, 0.0, 0.0, 0.0, 0.0)"
2022/11/28/22:55:19.960673,131,1669697719,960288524,RU_myo,0.4937181416500151,-0.02539086993774339,-0.5017138242506025,-0.7098457148460472,"(0.0, 0.0, 0.0, 0.0, 0.0, 0.0, 0.0, 0.0, 0.0)",38.875,-73.0625,11.25,"(0.0, 0.0, 0.0, 0.0, 0.0, 0.0, 0.0, 0.0, 0.0)",0.474609375,0.6357421875,0.3759765625,"(0.0, 0.0, 0.0, 0.0, 0.0, 0.0, 0.0, 0.0, 0.0)"
2022/11/28/22:55:19.977705,132,1669697719,977183818,RU_myo,0.488464826764357,-0.031860382303010665,-0.5155034270713181,-0.7033087840566894,"(0.0, 0.0, 0.0, 0.0, 0.0, 0.0, 0.0, 0.0, 0.0)",53.625,-78.875,12.8125,"(0.0, 0.0, 0.0, 0.0, 0.0, 0.0, 0.0, 0.0, 0.0)",0.49169921875,0.60302734375,0.3564453125,"(0.0, 0.0, 0.0, 0.0, 0.0, 0.0, 0.0, 0.0, 0.0)"
2022/11/28/22:55:20.000031,133,1669697719,999650239,RU_myo,0.48607465447626536,-0.03869554632570972,-0.5316060070929521,-0.6925526248546187,"(0.0, 0.0, 0.0, 0.0, 0.0, 0.0, 0.0, 0.0, 0.0)",83.25,-79.125,25.875,"(0.0, 0.0, 0.0, 0.0, 0.0, 0.0, 0.0, 0.0, 0.0)",0.5556640625,0.38525390625,0.36328125,"(0.0, 0.0, 0.0, 0.0, 0.0, 0.0, 0.0, 0.0, 0.0)"
2022/11/28/22:55:20.021005,134,1669697720,20430803,RU_myo,0.48631677591839806,-0.04406635444441308,-0.5535149147595321,-0.6746668726157093,"(0.0, 0.0, 0.0, 0.0, 0.0, 0.0, 0.0, 0.0, 0.0)",128.8125,-84.25,57.0,"(0.0, 0.0, 0.0, 0.0, 0.0, 0.0, 0.0, 0.0, 0.0)",0.6953125,0.28125,0.34228515625,"(0.0, 0.0, 0.0, 0.0, 0.0, 0.0, 0.0, 0.0, 0.0)"
2022/11/28/22:55:20.038192,135,1669697720,37633180,RU_myo,0.4884415420255073,-0.04815448914883485,-0.5768163205901624,-0.6529846380271027,"(0.0, 0.0, 0.0, 0.0, 0.0, 0.0, 0.0, 0.0, 0.0)",148.5625,-78.4375,72.3125,"(0.0, 0.0, 0.0, 0.0, 0.0, 0.0, 0.0, 0.0, 0.0)",0.6455078125,0.40625,0.234375,"(0.0, 0.0, 0.0, 0.0, 0.0, 0.0, 0.0, 0.0, 0.0)"
2022/11/28/22:55:20.060845,136,1669697720,60507059,RU_myo,0.4918182531731938,-0.052550945145460395,-0.600948438910805,-0.6278647766682358,"(0.0, 0.0, 0.0, 0.0, 0.0, 0.0, 0.0, 0.0, 0.0)",162.0625,-78.875,88.4375,"(0.0, 0.0, 0.0, 0.0, 0.0, 0.0, 0.0, 0.0, 0.0)",0.67529296875,0.513671875,0.19580078125,"(0.0, 0.0, 0.0, 0.0, 0.0, 0.0, 0.0, 0.0, 0.0)"
2022/11/28/22:55:20.080703,137,1669697720,80382823,RU_myo,0.4984601369103999,-0.05932450753972189,-0.6224800950592836,-0.600447021785786,"(0.0, 0.0, 0.0, 0.0, 0.0, 0.0, 0.0, 0.0, 0.0)",155.5625,-70.125,115.625,"(0.0, 0.0, 0.0, 0.0, 0.0, 0.0, 0.0, 0.0, 0.0)",0.72509765625,0.5107421875,0.2236328125,"(0.0, 0.0, 0.0, 0.0, 0.0, 0.0, 0.0, 0.0, 0.0)"
2022/11/28/22:55:20.096745,138,1669697720,96482753,RU_myo,0.5059581181172368,-0.07067545244629193,-0.6384593333684455,-0.5756570530858597,"(0.0, 0.0, 0.0, 0.0, 0.0, 0.0, 0.0, 0.0, 0.0)",114.8125,-67.1875,129.1875,"(0.0, 0.0, 0.0, 0.0, 0.0, 0.0, 0.0, 0.0, 0.0)",0.787109375,0.52294921875,0.23291015625,"(0.0, 0.0, 0.0, 0.0, 0.0, 0.0, 0.0, 0.0, 0.0)"
2022/11/28/22:55:20.120342,139,1669697720,119933366,RU_myo,0.5128684696546894,-0.08434894978731175,-0.6493404318286612,-0.5551650124930446,"(0.0, 0.0, 0.0, 0.0, 0.0, 0.0, 0.0, 0.0, 0.0)",74.4375,-59.9375,125.75,"(0.0, 0.0, 0.0, 0.0, 0.0, 0.0, 0.0, 0.0, 0.0)",0.71533203125,0.44873046875,0.14990234375,"(0.0, 0.0, 0.0, 0.0, 0.0, 0.0, 0.0, 0.0, 0.0)"
2022/11/28/22:55:20.142563,140,1669697720,142227888,RU_myo,0.5208671293084953,-0.0989977131167541,-0.6584995849671146,-0.5341115829128946,"(0.0, 0.0, 0.0, 0.0, 0.0, 0.0, 0.0, 0.0, 0.0)",69.1875,-54.25,135.75,"(0.0, 0.0, 0.0, 0.0, 0.0, 0.0, 0.0, 0.0, 0.0)",0.7646484375,0.45166015625,0.13916015625,"(0.0, 0.0, 0.0, 0.0, 0.0, 0.0, 0.0, 0.0, 0.0)"
2022/11/28/22:55:20.158088,141,1669697720,157742738,RU_myo,0.5327607835787789,-0.11101980356625028,-0.6674005233628075,-0.5083474128110493,"(0.0, 0.0, 0.0, 0.0, 0.0, 0.0, 0.0, 0.0, 0.0)",96.6875,-35.125,152.125,"(0.0, 0.0, 0.0, 0.0, 0.0, 0.0, 0.0, 0.0, 0.0)",0.83447265625,0.44775390625,0.23046875,"(0.0, 0.0, 0.0, 0.0, 0.0, 0.0, 0.0, 0.0, 0.0)"
2022/11/28/22:55:20.180276,142,1669697720,179740190,RU_myo,0.5466794982538438,-0.12060273401245901,-0.6757048928400474,-0.4796033825252545,"(0.0, 0.0, 0.0, 0.0, 0.0, 0.0, 0.0, 0.0, 0.0)",114.9375,-20.1875,157.375,"(0.0, 0.0, 0.0, 0.0, 0.0, 0.0, 0.0, 0.0, 0.0)",1.0634765625,0.4990234375,0.1865234375,"(0.0, 0.0, 0.0, 0.0, 0.0, 0.0, 0.0, 0.0, 0.0)"
2022/11/28/22:55:20.203046,143,1669697720,202484846,RU_myo,0.5577849592360489,-0.13097784467891024,-0.682171188246123,-0.45427217984395574,"(0.0, 0.0, 0.0, 0.0, 0.0, 0.0, 0.0, 0.0, 0.0)",90.9375,-22.9375,145.25,"(0.0, 0.0, 0.0, 0.0, 0.0, 0.0, 0.0, 0.0, 0.0)",0.98583984375,0.50439453125,0.02880859375,"(0.0, 0.0, 0.0, 0.0, 0.0, 0.0, 0.0, 0.0, 0.0)"
2022/11/28/22:55:20.216722,144,1669697720,216330289,RU_myo,0.5684042678460242,-0.1397055051110866,-0.6882739105014083,-0.4285766958890564,"(0.0, 0.0, 0.0, 0.0, 0.0, 0.0, 0.0, 0.0, 0.0)",95.6875,-18.375,137.5625,"(0.0, 0.0, 0.0, 0.0, 0.0, 0.0, 0.0, 0.0, 0.0)",1.142578125,0.43212890625,-0.08642578125,"(0.0, 0.0, 0.0, 0.0, 0.0, 0.0, 0.0, 0.0, 0.0)"
2022/11/28/22:55:20.240351,145,1669697720,239906072,RU_myo,0.5836805843002102,-0.1423953574372467,-0.6947037969784579,-0.3955087510473033,"(0.0, 0.0, 0.0, 0.0, 0.0, 0.0, 0.0, 0.0, 0.0)",149.75,6.0625,150.9375,"(0.0, 0.0, 0.0, 0.0, 0.0, 0.0, 0.0, 0.0, 0.0)",1.11865234375,0.47705078125,0.00634765625,"(0.0, 0.0, 0.0, 0.0, 0.0, 0.0, 0.0, 0.0, 0.0)"
2022/11/28/22:55:20.262795,146,1669697720,262300968,RU_myo,0.5996118745471765,-0.14178525901599054,-0.6999540897095908,-0.36114652500973565,"(0.0, 0.0, 0.0, 0.0, 0.0, 0.0, 0.0, 0.0, 0.0)",164.3125,18.6875,147.0,"(0.0, 0.0, 0.0, 0.0, 0.0, 0.0, 0.0, 0.0, 0.0)",1.2265625,0.59326171875,-0.00927734375,"(0.0, 0.0, 0.0, 0.0, 0.0, 0.0, 0.0, 0.0, 0.0)"
2022/11/28/22:55:20.276847,147,1669697720,276462554,RU_myo,0.6121737346075565,-0.14526156414416597,-0.7028096265210382,-0.3319653980588734,"(0.0, 0.0, 0.0, 0.0, 0.0, 0.0, 0.0, 0.0, 0.0)",120.625,11.5625,141.9375,"(0.0, 0.0, 0.0, 0.0, 0.0, 0.0, 0.0, 0.0, 0.0)",1.12548828125,0.5869140625,-0.1572265625,"(0.0, 0.0, 0.0, 0.0, 0.0, 0.0, 0.0, 0.0, 0.0)"
2022/11/28/22:55:20.300263,148,1669697720,299759626,RU_myo,0.6221814845810868,-0.14965558173364968,-0.7051878431282987,-0.305292504009672,"(0.0, 0.0, 0.0, 0.0, 0.0, 0.0, 0.0, 0.0, 0.0)",104.1875,3.75,129.8125,"(0.0, 0.0, 0.0, 0.0, 0.0, 0.0, 0.0, 0.0, 0.0)",1.13037109375,0.37353515625,-0.1787109375,"(0.0, 0.0, 0.0, 0.0, 0.0, 0.0, 0.0, 0.0, 0.0)"
2022/11/28/22:55:20.323273,149,1669697720,322602033,RU_myo,0.6319358545239118,-0.15099568322311743,-0.7068843989855077,-0.2795922493310836,"(0.0, 0.0, 0.0, 0.0, 0.0, 0.0, 0.0, 0.0, 0.0)",110.75,8.9375,116.8125,"(0.0, 0.0, 0.0, 0.0, 0.0, 0.0, 0.0, 0.0, 0.0)",1.07177734375,0.458984375,-0.05126953125,"(0.0, 0.0, 0.0, 0.0, 0.0, 0.0, 0.0, 0.0, 0.0)"
2022/11/28/22:55:20.337147,150,1669697720,336825847,RU_myo,0.6396206776089978,-0.15563289388386872,-0.7052916555772498,-0.2631111394248463,"(0.0, 0.0, 0.0, 0.0, 0.0, 0.0, 0.0, 0.0, 0.0)",54.5625,13.375,101.5,"(0.0, 0.0, 0.0, 0.0, 0.0, 0.0, 0.0, 0.0, 0.0)",1.0263671875,0.73193359375,0.03662109375,"(0.0, 0.0, 0.0, 0.0, 0.0, 0.0, 0.0, 0.0, 0.0)"
2022/11/28/22:55:20.360272,151,1669697720,359828710,RU_myo,0.6466665674505531,-0.16033912908849485,-0.7016591655886322,-0.2525631199726653,"(0.0, 0.0, 0.0, 0.0, 0.0, 0.0, 0.0, 0.0, 0.0)",26.125,28.4375,89.5,"(0.0, 0.0, 0.0, 0.0, 0.0, 0.0, 0.0, 0.0, 0.0)",1.03369140625,0.412109375,-0.0859375,"(0.0, 0.0, 0.0, 0.0, 0.0, 0.0, 0.0, 0.0, 0.0)"
2022/11/28/22:55:20.383071,152,1669697720,382591962,RU_myo,0.6538104533590042,-0.16601609719347382,-0.6965962195842341,-0.24438546072156955,"(0.0, 0.0, 0.0, 0.0, 0.0, 0.0, 0.0, 0.0, 0.0)",11.1875,33.0625,70.5625,"(0.0, 0.0, 0.0, 0.0, 0.0, 0.0, 0.0, 0.0, 0.0)",0.97314453125,0.15380859375,-0.03955078125,"(0.0, 0.0, 0.0, 0.0, 0.0, 0.0, 0.0, 0.0, 0.0)"
2022/11/28/22:55:20.403474,153,1669697720,403028011,RU_myo,0.6597862059861445,-0.1687612266005263,-0.6929281032896112,-0.23675399565404756,"(0.0, 0.0, 0.0, 0.0, 0.0, 0.0, 0.0, 0.0, 0.0)",19.5625,34.5625,52.375,"(0.0, 0.0, 0.0, 0.0, 0.0, 0.0, 0.0, 0.0, 0.0)",0.9912109375,0.12060546875,-0.1357421875,"(0.0, 0.0, 0.0, 0.0, 0.0, 0.0, 0.0, 0.0, 0.0)"
2022/11/28/22:55:20.420134,154,1669697720,419730424,RU_myo,0.6634412565767106,-0.16674530938064153,-0.6920662749147489,-0.2304039322518015,"(0.0, 0.0, 0.0, 0.0, 0.0, 0.0, 0.0, 0.0, 0.0)",33.9375,29.125,31.375,"(0.0, 0.0, 0.0, 0.0, 0.0, 0.0, 0.0, 0.0, 0.0)",1.0498046875,0.23828125,-0.224609375,"(0.0, 0.0, 0.0, 0.0, 0.0, 0.0, 0.0, 0.0, 0.0)"
2022/11/28/22:55:20.442870,155,1669697720,442184686,RU_myo,0.6655391479282952,-0.16192914154931834,-0.6927613104352669,-0.22565097486160193,"(0.0, 0.0, 0.0, 0.0, 0.0, 0.0, 0.0, 0.0, 0.0)",39.0625,20.1875,8.75,"(0.0, 0.0, 0.0, 0.0, 0.0, 0.0, 0.0, 0.0, 0.0)",1.10498046875,0.21337890625,-0.1962890625,"(0.0, 0.0, 0.0, 0.0, 0.0, 0.0, 0.0, 0.0, 0.0)"
2022/11/28/22:55:20.463500,156,1669697720,463074445,RU_myo,0.6664973675749908,-0.1563095016812776,-0.6932915383044249,-0.2251564825077052,"(0.0, 0.0, 0.0, 0.0, 0.0, 0.0, 0.0, 0.0, 0.0)",23.9375,18.75,-11.375,"(0.0, 0.0, 0.0, 0.0, 0.0, 0.0, 0.0, 0.0, 0.0)",1.14892578125,0.24169921875,-0.15966796875,"(0.0, 0.0, 0.0, 0.0, 0.0, 0.0, 0.0, 0.0, 0.0)"
2022/11/28/22:55:20.480012,157,1669697720,479646921,RU_myo,0.6656552043246562,-0.15106332575678746,-0.6944640486710011,-0.2276020774735598,"(0.0, 0.0, 0.0, 0.0, 0.0, 0.0, 0.0, 0.0, 0.0)",10.4375,6.0625,-21.9375,"(0.0, 0.0, 0.0, 0.0, 0.0, 0.0, 0.0, 0.0, 0.0)",1.0009765625,0.26416015625,-0.07763671875,"(0.0, 0.0, 0.0, 0.0, 0.0, 0.0, 0.0, 0.0, 0.0)"
2022/11/28/22:55:20.503383,158,1669697720,501982212,RU_myo,0.6640676530386813,-0.1519176827585733,-0.6950737530151198,-0.22979914647891866,"(0.0, 0.0, 0.0, 0.0, 0.0, 0.0, 0.0, 0.0, 0.0)",-12.75,-7.25,-17.3125,"(0.0, 0.0, 0.0, 0.0, 0.0, 0.0, 0.0, 0.0, 0.0)",0.95654296875,-0.02587890625,-0.02099609375,"(0.0, 0.0, 0.0, 0.0, 0.0, 0.0, 0.0, 0.0, 0.0)"
2022/11/28/22:55:20.523580,159,1669697720,523071527,RU_myo,0.6628463280468037,-0.15753281516471457,-0.6942796483915646,-0.2319351792428963,"(0.0, 0.0, 0.0, 0.0, 0.0, 0.0, 0.0, 0.0, 0.0)",-31.8125,-8.8125,-3.6875,"(0.0, 0.0, 0.0, 0.0, 0.0, 0.0, 0.0, 0.0, 0.0)",0.87158203125,-0.14501953125,0.00390625,"(0.0, 0.0, 0.0, 0.0, 0.0, 0.0, 0.0, 0.0, 0.0)"
2022/11/28/22:55:20.541490,160,1669697720,541072368,RU_myo,0.660871800420288,-0.16033526225564246,-0.6948675145719412,-0.2338807479876749,"(0.0, 0.0, 0.0, 0.0, 0.0, 0.0, 0.0, 0.0, 0.0)",-19.75,-12.875,-4.375,"(0.0, 0.0, 0.0, 0.0, 0.0, 0.0, 0.0, 0.0, 0.0)",0.8798828125,0.02978515625,-0.005859375,"(0.0, 0.0, 0.0, 0.0, 0.0, 0.0, 0.0, 0.0, 0.0)"
2022/11/28/22:55:20.562651,161,1669697720,562332391,RU_myo,0.6590982365721471,-0.1620433205018104,-0.6954130296789558,-0.2360766718271196,"(0.0, 0.0, 0.0, 0.0, 0.0, 0.0, 0.0, 0.0, 0.0)",-16.1875,-9.9375,-3.375,"(0.0, 0.0, 0.0, 0.0, 0.0, 0.0, 0.0, 0.0, 0.0)",0.9228515625,0.12060546875,-0.0087890625,"(0.0, 0.0, 0.0, 0.0, 0.0, 0.0, 0.0, 0.0, 0.0)"
2022/11/28/22:55:20.584240,162,1669697720,583407640,RU_myo,0.6577724214105034,-0.16589268269404736,-0.6948205665154654,-0.23882931103083418,"(0.0, 0.0, 0.0, 0.0, 0.0, 0.0, 0.0, 0.0, 0.0)",-27.1875,-6.5625,-0.625,"(0.0, 0.0, 0.0, 0.0, 0.0, 0.0, 0.0, 0.0, 0.0)",0.95458984375,0.0478515625,-0.00732421875,"(0.0, 0.0, 0.0, 0.0, 0.0, 0.0, 0.0, 0.0, 0.0)"
2022/11/28/22:55:20.599942,163,1669697720,599607229,RU_myo,0.6572740708543345,-0.17004044585385608,-0.6934671736509378,-0.24120597344380446,"(0.0, 0.0, 0.0, 0.0, 0.0, 0.0, 0.0, 0.0, 0.0)",-27.375,-2.875,0.25,"(0.0, 0.0, 0.0, 0.0, 0.0, 0.0, 0.0, 0.0, 0.0)",0.99169921875,-0.00048828125,0.017578125,"(0.0, 0.0, 0.0, 0.0, 0.0, 0.0, 0.0, 0.0, 0.0)"
2022/11/28/22:55:20.623418,164,1669697720,622550249,RU_myo,0.6575886946850228,-0.1729115251571069,-0.692073344072162,-0.24230806737511978,"(0.0, 0.0, 0.0, 0.0, 0.0, 0.0, 0.0, 0.0, 0.0)",-16.75,0.4375,1.0625,"(0.0, 0.0, 0.0, 0.0, 0.0, 0.0, 0.0, 0.0, 0.0)",1.0224609375,-0.00732421875,0.02392578125,"(0.0, 0.0, 0.0, 0.0, 0.0, 0.0, 0.0, 0.0, 0.0)"
2022/11/28/22:55:20.643735,165,1669697720,643225669,RU_myo,0.6585710030032804,-0.17407270626184945,-0.6911028236335629,-0.24157775995245448,"(0.0, 0.0, 0.0, 0.0, 0.0, 0.0, 0.0, 0.0, 0.0)",-1.625,3.5,2.25,"(0.0, 0.0, 0.0, 0.0, 0.0, 0.0, 0.0, 0.0, 0.0)",1.0283203125,0.00634765625,0.0087890625,"(0.0, 0.0, 0.0, 0.0, 0.0, 0.0, 0.0, 0.0, 0.0)"
2022/11/28/22:55:20.660097,166,1669697720,659772157,RU_myo,0.6594876271677585,-0.17456127845439975,-0.690615687311725,-0.24011331099287017,"(0.0, 0.0, 0.0, 0.0, 0.0, 0.0, 0.0, 0.0, 0.0)",3.8125,3.6875,4.4375,"(0.0, 0.0, 0.0, 0.0, 0.0, 0.0, 0.0, 0.0, 0.0)",1.00341796875,0.03369140625,-0.0205078125,"(0.0, 0.0, 0.0, 0.0, 0.0, 0.0, 0.0, 0.0, 0.0)"
2022/11/28/22:55:20.683374,167,1669697720,682548284,RU_myo,0.659903045573011,-0.1758398699866671,-0.690298135907395,-0.23894935473717518,"(0.0, 0.0, 0.0, 0.0, 0.0, 0.0, 0.0, 0.0, 0.0)",-0.5,2.3125,7.5,"(0.0, 0.0, 0.0, 0.0, 0.0, 0.0, 0.0, 0.0, 0.0)",0.98095703125,0.0537109375,-0.05078125,"(0.0, 0.0, 0.0, 0.0, 0.0, 0.0, 0.0, 0.0, 0.0)"
2022/11/28/22:55:20.703933,168,1669697720,703244447,RU_myo,0.6598889589486151,-0.1777891729020825,-0.6898561693485198,-0.23882218797317156,"(0.0, 0.0, 0.0, 0.0, 0.0, 0.0, 0.0, 0.0, 0.0)",-7.875,0.9375,6.5625,"(0.0, 0.0, 0.0, 0.0, 0.0, 0.0, 0.0, 0.0, 0.0)",0.97314453125,0.0673828125,-0.04736328125,"(0.0, 0.0, 0.0, 0.0, 0.0, 0.0, 0.0, 0.0, 0.0)"
2022/11/28/22:55:20.720612,169,1669697720,720092773,RU_myo,0.6594097599409097,-0.17986676809939475,-0.689499450023367,-0.2396189112854509,"(0.0, 0.0, 0.0, 0.0, 0.0, 0.0, 0.0, 0.0, 0.0)",-12.0625,0.3125,3.875,"(0.0, 0.0, 0.0, 0.0, 0.0, 0.0, 0.0, 0.0, 0.0)",0.9892578125,0.07666015625,-0.05419921875,"(0.0, 0.0, 0.0, 0.0, 0.0, 0.0, 0.0, 0.0, 0.0)"
2022/11/28/22:55:20.742738,170,1669697720,742392539,RU_myo,0.658798573504803,-0.1819416849747839,-0.6890713261876251,-0.24096134595117308,"(0.0, 0.0, 0.0, 0.0, 0.0, 0.0, 0.0, 0.0, 0.0)",-14.6875,0.0625,2.125,"(0.0, 0.0, 0.0, 0.0, 0.0, 0.0, 0.0, 0.0, 0.0)",0.99169921875,0.08544921875,-0.0517578125,"(0.0, 0.0, 0.0, 0.0, 0.0, 0.0, 0.0, 0.0, 0.0)"
2022/11/28/22:55:20.763549,171,1669697720,763083219,RU_myo,0.658231915765663,-0.18437817501419268,-0.6882597416865445,-0.24296905485981496,"(0.0, 0.0, 0.0, 0.0, 0.0, 0.0, 0.0, 0.0, 0.0)",-19.125,0.625,1.25,"(0.0, 0.0, 0.0, 0.0, 0.0, 0.0, 0.0, 0.0, 0.0)",0.99267578125,0.07958984375,-0.03173828125,"(0.0, 0.0, 0.0, 0.0, 0.0, 0.0, 0.0, 0.0, 0.0)"
2022/11/28/22:55:20.780222,172,1669697720,779560565,RU_myo,0.6576010254880523,-0.1865868140817687,-0.6875696632748199,-0.2449371556788151,"(0.0, 0.0, 0.0, 0.0, 0.0, 0.0, 0.0, 0.0, 0.0)",-17.8125,0.25,-1.0625,"(0.0, 0.0, 0.0, 0.0, 0.0, 0.0, 0.0, 0.0, 0.0)",0.99267578125,0.0634765625,-0.03271484375,"(0.0, 0.0, 0.0, 0.0, 0.0, 0.0, 0.0, 0.0, 0.0)"
2022/11/28/22:55:20.802673,173,1669697720,802353382,RU_myo,0.6563486834492105,-0.18889707785710494,-0.6873534380700212,-0.24712254224343067,"(0.0, 0.0, 0.0, 0.0, 0.0, 0.0, 0.0, 0.0, 0.0)",-19.0,-3.0625,-2.4375,"(0.0, 0.0, 0.0, 0.0, 0.0, 0.0, 0.0, 0.0, 0.0)",0.978515625,0.0625,-0.04541015625,"(0.0, 0.0, 0.0, 0.0, 0.0, 0.0, 0.0, 0.0, 0.0)"
2022/11/28/22:55:20.823733,174,1669697720,822960853,RU_myo,0.653932371762362,-0.1919560676864503,-0.6877459366266843,-0.2500616881753217,"(0.0, 0.0, 0.0, 0.0, 0.0, 0.0, 0.0, 0.0, 0.0)",-25.625,-8.1875,-3.9375,"(0.0, 0.0, 0.0, 0.0, 0.0, 0.0, 0.0, 0.0, 0.0)",0.95849609375,0.07470703125,-0.07568359375,"(0.0, 0.0, 0.0, 0.0, 0.0, 0.0, 0.0, 0.0, 0.0)"
2022/11/28/22:55:20.839384,175,1669697720,839111328,RU_myo,0.6501790374035901,-0.19573117177821397,-0.6888125989051833,-0.25395616020241607,"(0.0, 0.0, 0.0, 0.0, 0.0, 0.0, 0.0, 0.0, 0.0)",-32.75,-14.3125,-7.375,"(0.0, 0.0, 0.0, 0.0, 0.0, 0.0, 0.0, 0.0, 0.0)",0.95947265625,0.0751953125,-0.1044921875,"(0.0, 0.0, 0.0, 0.0, 0.0, 0.0, 0.0, 0.0, 0.0)"
2022/11/28/22:55:20.862800,176,1669697720,862398862,RU_myo,0.6448724434846524,-0.20055374307122545,-0.6905249692963618,-0.25902315447178353,"(0.0, 0.0, 0.0, 0.0, 0.0, 0.0, 0.0, 0.0, 0.0)",-42.0625,-21.875,-11.25,"(0.0, 0.0, 0.0, 0.0, 0.0, 0.0, 0.0, 0.0, 0.0)",0.96435546875,0.07421875,-0.1318359375,"(0.0, 0.0, 0.0, 0.0, 0.0, 0.0, 0.0, 0.0, 0.0)"
2022/11/28/22:55:20.884402,177,1669697720,883441686,RU_myo,0.638005328561292,-0.2061783220013436,-0.692571172217065,-0.26605426453636966,"(0.0, 0.0, 0.0, 0.0, 0.0, 0.0, 0.0, 0.0, 0.0)",-54.75,-25.375,-16.625,"(0.0, 0.0, 0.0, 0.0, 0.0, 0.0, 0.0, 0.0, 0.0)",0.99365234375,0.10107421875,-0.18017578125,"(0.0, 0.0, 0.0, 0.0, 0.0, 0.0, 0.0, 0.0, 0.0)"
2022/11/28/22:55:20.900200,178,1669697720,899772405,RU_myo,0.6302899740094793,-0.21392140591684175,-0.6932762481624551,-0.27629734795593225,"(0.0, 0.0, 0.0, 0.0, 0.0, 0.0, 0.0, 0.0, 0.0)",-77.5625,-25.625,-17.625,"(0.0, 0.0, 0.0, 0.0, 0.0, 0.0, 0.0, 0.0, 0.0)",0.99462890625,0.140625,-0.1572265625,"(0.0, 0.0, 0.0, 0.0, 0.0, 0.0, 0.0, 0.0, 0.0)"
2022/11/28/22:55:20.923272,179,1669697720,922239780,RU_myo,0.620632287880922,-0.22258294364261208,-0.6941145648608246,-0.28892450101566375,"(0.0, 0.0, 0.0, 0.0, 0.0, 0.0, 0.0, 0.0, 0.0)",-92.9375,-30.125,-22.625,"(0.0, 0.0, 0.0, 0.0, 0.0, 0.0, 0.0, 0.0, 0.0)",0.99072265625,0.19775390625,-0.19921875,"(0.0, 0.0, 0.0, 0.0, 0.0, 0.0, 0.0, 0.0, 0.0)"
2022/11/28/22:55:20.943356,180,1669697720,942940711,RU_myo,0.6099761236671316,-0.23107560578384634,-0.6948747416400134,-0.3027908294489334,"(0.0, 0.0, 0.0, 0.0, 0.0, 0.0, 0.0, 0.0, 0.0)",-98.9375,-30.5625,-30.4375,"(0.0, 0.0, 0.0, 0.0, 0.0, 0.0, 0.0, 0.0, 0.0)",0.9775390625,0.1953125,-0.22607421875,"(0.0, 0.0, 0.0, 0.0, 0.0, 0.0, 0.0, 0.0, 0.0)"
2022/11/28/22:55:20.960131,181,1669697720,959766626,RU_myo,0.5989363304932501,-0.24108819988263913,-0.6940898757127525,-0.31841952880701985,"(0.0, 0.0, 0.0, 0.0, 0.0, 0.0, 0.0, 0.0, 0.0)",-113.5625,-35.6875,-33.0625,"(0.0, 0.0, 0.0, 0.0, 0.0, 0.0, 0.0, 0.0, 0.0)",0.96923828125,0.150390625,-0.22216796875,"(0.0, 0.0, 0.0, 0.0, 0.0, 0.0, 0.0, 0.0, 0.0)"
2022/11/28/22:55:20.982865,182,1669697720,982449293,RU_myo,0.5867746276085428,-0.25109120220319797,-0.6929726567367792,-0.33531722530490266,"(0.0, 0.0, 0.0, 0.0, 0.0, 0.0, 0.0, 0.0, 0.0)",-120.5,-37.3125,-37.6875,"(0.0, 0.0, 0.0, 0.0, 0.0, 0.0, 0.0, 0.0, 0.0)",1.00244140625,0.2353515625,-0.21484375,"(0.0, 0.0, 0.0, 0.0, 0.0, 0.0, 0.0, 0.0, 0.0)"
2022/11/28/22:55:21.003460,183,1669697721,2933979,RU_myo,0.573920771913209,-0.26056234981362214,-0.6916590649069961,-0.35260451976418256,"(0.0, 0.0, 0.0, 0.0, 0.0, 0.0, 0.0, 0.0, 0.0)",-121.8125,-38.375,-42.25,"(0.0, 0.0, 0.0, 0.0, 0.0, 0.0, 0.0, 0.0, 0.0)",0.990234375,0.26416015625,-0.1806640625,"(0.0, 0.0, 0.0, 0.0, 0.0, 0.0, 0.0, 0.0, 0.0)"
2022/11/28/22:55:21.020546,184,1669697721,20122289,RU_myo,0.5603497492447206,-0.2697686408519404,-0.6891917403846406,-0.3718168687941224,"(0.0, 0.0, 0.0, 0.0, 0.0, 0.0, 0.0, 0.0, 0.0)",-131.625,-35.6875,-49.875,"(0.0, 0.0, 0.0, 0.0, 0.0, 0.0, 0.0, 0.0, 0.0)",0.98046875,0.2509765625,-0.10498046875,"(0.0, 0.0, 0.0, 0.0, 0.0, 0.0, 0.0, 0.0, 0.0)"
2022/11/28/22:55:21.042426,185,1669697721,42041540,RU_myo,0.5472212721640086,-0.2786153365412335,-0.6851556994549588,-0.39177039326575636,"(0.0, 0.0, 0.0, 0.0, 0.0, 0.0, 0.0, 0.0, 0.0)",-136.125,-28.125,-51.0,"(0.0, 0.0, 0.0, 0.0, 0.0, 0.0, 0.0, 0.0, 0.0)",0.986328125,0.2197265625,-0.01513671875,"(0.0, 0.0, 0.0, 0.0, 0.0, 0.0, 0.0, 0.0, 0.0)"
2022/11/28/22:55:21.063485,186,1669697721,63051462,RU_myo,0.5350218783428087,-0.283929018714436,-0.6812587504063918,-0.41112335985822035,"(0.0, 0.0, 0.0, 0.0, 0.0, 0.0, 0.0, 0.0, 0.0)",-120.6875,-17.0625,-60.0,"(0.0, 0.0, 0.0, 0.0, 0.0, 0.0, 0.0, 0.0, 0.0)",0.9755859375,0.31103515625,-0.06396484375,"(0.0, 0.0, 0.0, 0.0, 0.0, 0.0, 0.0, 0.0, 0.0)"
2022/11/28/22:55:21.079890,187,1669697721,79647541,RU_myo,0.5223162830098254,-0.28660870121688947,-0.677033714352418,-0.432049189930656,"(0.0, 0.0, 0.0, 0.0, 0.0, 0.0, 0.0, 0.0, 0.0)",-119.875,-10.125,-74.6875,"(0.0, 0.0, 0.0, 0.0, 0.0, 0.0, 0.0, 0.0, 0.0)",0.99560546875,0.43359375,-0.01513671875,"(0.0, 0.0, 0.0, 0.0, 0.0, 0.0, 0.0, 0.0, 0.0)"
2022/11/28/22:55:21.103202,188,1669697721,102513551,RU_myo,0.5100500817293188,-0.2872197779847043,-0.6716035777610894,-0.4542051822699043,"(0.0, 0.0, 0.0, 0.0, 0.0, 0.0, 0.0, 0.0, 0.0)",-120.75,1.125,-84.4375,"(0.0, 0.0, 0.0, 0.0, 0.0, 0.0, 0.0, 0.0, 0.0)",1.02978515625,0.40966796875,0.06689453125,"(0.0, 0.0, 0.0, 0.0, 0.0, 0.0, 0.0, 0.0, 0.0)"
2022/11/28/22:55:21.125370,189,1669697721,125011682,RU_myo,0.49706405839586376,-0.2868005906682421,-0.6657020732961304,-0.4769837446419051,"(0.0, 0.0, 0.0, 0.0, 0.0, 0.0, 0.0, 0.0, 0.0)",-122.75,4.125,-92.25,"(0.0, 0.0, 0.0, 0.0, 0.0, 0.0, 0.0, 0.0, 0.0)",0.9970703125,0.373046875,0.05078125,"(0.0, 0.0, 0.0, 0.0, 0.0, 0.0, 0.0, 0.0, 0.0)"
2022/11/28/22:55:21.139274,190,1669697721,138964891,RU_myo,0.4835127508977081,-0.2851516753590119,-0.6591080783822709,-0.5004802521284027,"(0.0, 0.0, 0.0, 0.0, 0.0, 0.0, 0.0, 0.0, 0.0)",-124.25,8.0625,-99.8125,"(0.0, 0.0, 0.0, 0.0, 0.0, 0.0, 0.0, 0.0, 0.0)",1.044921875,0.40478515625,0.08984375,"(0.0, 0.0, 0.0, 0.0, 0.0, 0.0, 0.0, 0.0, 0.0)"
2022/11/28/22:55:21.162683,191,1669697721,162255048,RU_myo,0.4708097813873284,-0.2813628587238247,-0.652810658765733,-0.5225048662764996,"(0.0, 0.0, 0.0, 0.0, 0.0, 0.0, 0.0, 0.0, 0.0)",-110.9375,14.75,-102.3125,"(0.0, 0.0, 0.0, 0.0, 0.0, 0.0, 0.0, 0.0, 0.0)",0.98095703125,0.41455078125,0.10498046875,"(0.0, 0.0, 0.0, 0.0, 0.0, 0.0, 0.0, 0.0, 0.0)"
2022/11/28/22:55:21.185577,192,1669697721,185025215,RU_myo,0.45970287081925937,-0.2770912152840464,-0.6463427246383373,-0.542341968945823,"(0.0, 0.0, 0.0, 0.0, 0.0, 0.0, 0.0, 0.0, 0.0)",-97.1875,14.9375,-97.4375,"(0.0, 0.0, 0.0, 0.0, 0.0, 0.0, 0.0, 0.0, 0.0)",0.95068359375,0.39404296875,0.0947265625,"(0.0, 0.0, 0.0, 0.0, 0.0, 0.0, 0.0, 0.0, 0.0)"
2022/11/28/22:55:21.200161,193,1669697721,199868202,RU_myo,0.4502424247392208,-0.27147598010574137,-0.6408493235409812,-0.5593699095479137,"(0.0, 0.0, 0.0, 0.0, 0.0, 0.0, 0.0, 0.0, 0.0)",-78.1875,19.75,-93.875,"(0.0, 0.0, 0.0, 0.0, 0.0, 0.0, 0.0, 0.0, 0.0)",0.89453125,0.35693359375,0.0947265625,"(0.0, 0.0, 0.0, 0.0, 0.0, 0.0, 0.0, 0.0, 0.0)"
2022/11/28/22:55:21.222677,194,1669697721,222238540,RU_myo,0.4424875766552225,-0.2646991199936138,-0.6364497171531945,-0.5736469976527498,"(0.0, 0.0, 0.0, 0.0, 0.0, 0.0, 0.0, 0.0, 0.0)",-58.8125,23.3125,-89.5625,"(0.0, 0.0, 0.0, 0.0, 0.0, 0.0, 0.0, 0.0, 0.0)",0.859375,0.33154296875,0.10546875,"(0.0, 0.0, 0.0, 0.0, 0.0, 0.0, 0.0, 0.0, 0.0)"
2022/11/28/22:55:21.245433,195,1669697721,245107412,RU_myo,0.436325775644537,-0.2581700980523698,-0.6338289523106052,-0.5841479925435534,"(0.0, 0.0, 0.0, 0.0, 0.0, 0.0, 0.0, 0.0, 0.0)",-38.5625,21.4375,-79.5625,"(0.0, 0.0, 0.0, 0.0, 0.0, 0.0, 0.0, 0.0, 0.0)",0.859375,0.30517578125,0.06396484375,"(0.0, 0.0, 0.0, 0.0, 0.0, 0.0, 0.0, 0.0, 0.0)"
2022/11/28/22:55:21.259196,196,1669697721,258939981,RU_myo,0.431622168909222,-0.25304093782489173,-0.6327854422017554,-0.5909781478433254,"(0.0, 0.0, 0.0, 0.0, 0.0, 0.0, 0.0, 0.0, 0.0)",-24.5625,17.5625,-63.9375,"(0.0, 0.0, 0.0, 0.0, 0.0, 0.0, 0.0, 0.0, 0.0)",0.8662109375,0.30810546875,-0.00634765625,"(0.0, 0.0, 0.0, 0.0, 0.0, 0.0, 0.0, 0.0, 0.0)"
2022/11/28/22:55:21.282665,197,1669697721,282267808,RU_myo,0.42844485929672094,-0.24785107886096633,-0.6325970037906713,-0.5956726248911676,"(0.0, 0.0, 0.0, 0.0, 0.0, 0.0, 0.0, 0.0, 0.0)",-9.9375,16.0,-51.5625,"(0.0, 0.0, 0.0, 0.0, 0.0, 0.0, 0.0, 0.0, 0.0)",0.865234375,0.37646484375,0.03369140625,"(0.0, 0.0, 0.0, 0.0, 0.0, 0.0, 0.0, 0.0, 0.0)"
2022/11/28/22:55:21.305279,198,1669697721,304759740,RU_myo,0.4273440000743057,-0.241014203983638,-0.6335091003672226,-0.5982938064450756,"(0.0, 0.0, 0.0, 0.0, 0.0, 0.0, 0.0, 0.0, 0.0)",8.1875,22.1875,-43.5,"(0.0, 0.0, 0.0, 0.0, 0.0, 0.0, 0.0, 0.0, 0.0)",0.7431640625,0.37451171875,0.04736328125,"(0.0, 0.0, 0.0, 0.0, 0.0, 0.0, 0.0, 0.0, 0.0)"
2022/11/28/22:55:21.319982,199,1669697721,319569349,RU_myo,0.4274231374697913,-0.23534822477274245,-0.6346955885403912,-0.5992346656687721,"(0.0, 0.0, 0.0, 0.0, 0.0, 0.0, 0.0, 0.0, 0.0)",16.375,16.4375,-30.6875,"(0.0, 0.0, 0.0, 0.0, 0.0, 0.0, 0.0, 0.0, 0.0)",0.7158203125,0.37060546875,0.1015625,"(0.0, 0.0, 0.0, 0.0, 0.0, 0.0, 0.0, 0.0, 0.0)"
2022/11/28/22:55:21.342820,200,1669697721,342454195,RU_myo,0.42717225326746483,-0.23015667482091867,-0.6379203302116792,-0.5980045345784569,"(0.0, 0.0, 0.0, 0.0, 0.0, 0.0, 0.0, 0.0, 0.0)",27.5625,8.8125,-26.5,"(0.0, 0.0, 0.0, 0.0, 0.0, 0.0, 0.0, 0.0, 0.0)",0.74755859375,0.4208984375,0.04541015625,"(0.0, 0.0, 0.0, 0.0, 0.0, 0.0, 0.0, 0.0, 0.0)"
2022/11/28/22:55:21.364847,201,1669697721,364479541,RU_myo,0.4277305866592883,-0.22686566646868933,-0.6410465684478461,-0.5955147451533499,"(0.0, 0.0, 0.0, 0.0, 0.0, 0.0, 0.0, 0.0, 0.0)",28.0,3.875,-13.125,"(0.0, 0.0, 0.0, 0.0, 0.0, 0.0, 0.0, 0.0, 0.0)",0.74609375,0.43408203125,0.04150390625,"(0.0, 0.0, 0.0, 0.0, 0.0, 0.0, 0.0, 0.0, 0.0)"
2022/11/28/22:55:21.386175,202,1669697721,385565519,RU_myo,0.42991356668035624,-0.22514922593467265,-0.642245948633928,-0.5932978111441998,"(0.0, 0.0, 0.0, 0.0, 0.0, 0.0, 0.0, 0.0, 0.0)",19.875,8.0,-0.25,"(0.0, 0.0, 0.0, 0.0, 0.0, 0.0, 0.0, 0.0, 0.0)",0.76416015625,0.439453125,0.07177734375,"(0.0, 0.0, 0.0, 0.0, 0.0, 0.0, 0.0, 0.0, 0.0)"
2022/11/28/22:55:21.402666,203,1669697721,402322530,RU_myo,0.4324772270618398,-0.2241118229990228,-0.6428567079653342,-0.5911620690546119,"(0.0, 0.0, 0.0, 0.0, 0.0, 0.0, 0.0, 0.0, 0.0)",14.8125,10.0,7.5,"(0.0, 0.0, 0.0, 0.0, 0.0, 0.0, 0.0, 0.0, 0.0)",0.75439453125,0.48876953125,0.04345703125,"(0.0, 0.0, 0.0, 0.0, 0.0, 0.0, 0.0, 0.0, 0.0)"
2022/11/28/22:55:21.424973,204,1669697721,424580812,RU_myo,0.4341808545799445,-0.22331567991397483,-0.643337136368737,-0.5896901064030677,"(0.0, 0.0, 0.0, 0.0, 0.0, 0.0, 0.0, 0.0, 0.0)",9.8125,7.5625,9.1875,"(0.0, 0.0, 0.0, 0.0, 0.0, 0.0, 0.0, 0.0, 0.0)",0.771484375,0.5888671875,0.03759765625,"(0.0, 0.0, 0.0, 0.0, 0.0, 0.0, 0.0, 0.0, 0.0)"
2022/11/28/22:55:21.445916,205,1669697721,445437192,RU_myo,0.4355389361359468,-0.2232014979609245,-0.6430546848554282,-0.589039556144622,"(0.0, 0.0, 0.0, 0.0, 0.0, 0.0, 0.0, 0.0, 0.0)",2.1875,6.125,12.625,"(0.0, 0.0, 0.0, 0.0, 0.0, 0.0, 0.0, 0.0, 0.0)",0.76904296875,0.638671875,0.05029296875,"(0.0, 0.0, 0.0, 0.0, 0.0, 0.0, 0.0, 0.0, 0.0)"
2022/11/28/22:55:21.462415,206,1669697721,462055444,RU_myo,0.4365762725588158,-0.22381171417212045,-0.6421388177815324,-0.5890392291996549,"(0.0, 0.0, 0.0, 0.0, 0.0, 0.0, 0.0, 0.0, 0.0)",-4.1875,4.4375,13.0,"(0.0, 0.0, 0.0, 0.0, 0.0, 0.0, 0.0, 0.0, 0.0)",0.77490234375,0.63720703125,0.06689453125,"(0.0, 0.0, 0.0, 0.0, 0.0, 0.0, 0.0, 0.0, 0.0)"
2022/11/28/22:55:21.485393,207,1669697721,484703302,RU_myo,0.4374308880188306,-0.22521556813024765,-0.6413455799221254,-0.5887342466624306,"(0.0, 0.0, 0.0, 0.0, 0.0, 0.0, 0.0, 0.0, 0.0)",-5.4375,1.875,12.4375,"(0.0, 0.0, 0.0, 0.0, 0.0, 0.0, 0.0, 0.0, 0.0)",0.79052734375,0.57763671875,0.0419921875,"(0.0, 0.0, 0.0, 0.0, 0.0, 0.0, 0.0, 0.0, 0.0)"
2022/11/28/22:55:21.499475,208,1669697721,499104022,RU_myo,0.4390217754971719,-0.22778107412142995,-0.6408021160774097,-0.5871527151790343,"(0.0, 0.0, 0.0, 0.0, 0.0, 0.0, 0.0, 0.0, 0.0)",-1.5625,-1.4375,16.9375,"(0.0, 0.0, 0.0, 0.0, 0.0, 0.0, 0.0, 0.0, 0.0)",0.79248046875,0.484375,0.033203125,"(0.0, 0.0, 0.0, 0.0, 0.0, 0.0, 0.0, 0.0, 0.0)"
2022/11/28/22:55:21.522305,209,1669697721,522023200,RU_myo,0.4407118953810628,-0.22880887630295035,-0.6411409030574802,-0.5851135495109056,"(0.0, 0.0, 0.0, 0.0, 0.0, 0.0, 0.0, 0.0, 0.0)",7.1875,0.4375,17.0625,"(0.0, 0.0, 0.0, 0.0, 0.0, 0.0, 0.0, 0.0, 0.0)",0.8466796875,0.60888671875,0.0556640625,"(0.0, 0.0, 0.0, 0.0, 0.0, 0.0, 0.0, 0.0, 0.0)"
2022/11/28/22:55:21.545207,210,1669697721,544685840,RU_myo,0.44139249551781345,-0.2267385399403591,-0.6420088025929037,-0.584454443733211,"(0.0, 0.0, 0.0, 0.0, 0.0, 0.0, 0.0, 0.0, 0.0)",10.0,6.1875,9.0,"(0.0, 0.0, 0.0, 0.0, 0.0, 0.0, 0.0, 0.0, 0.0)",0.810546875,0.7734375,0.0712890625,"(0.0, 0.0, 0.0, 0.0, 0.0, 0.0, 0.0, 0.0, 0.0)"
2022/11/28/22:55:21.559190,211,1669697721,558783769,RU_myo,0.4405257752578154,-0.22575572771940414,-0.6416857856831076,-0.5858419114297271,"(0.0, 0.0, 0.0, 0.0, 0.0, 0.0, 0.0, 0.0, 0.0)",-5.875,2.5625,2.375,"(0.0, 0.0, 0.0, 0.0, 0.0, 0.0, 0.0, 0.0, 0.0)",0.77294921875,0.716796875,0.0693359375,"(0.0, 0.0, 0.0, 0.0, 0.0, 0.0, 0.0, 0.0, 0.0)"
2022/11/28/22:55:21.582562,212,1669697721,582131862,RU_myo,0.43948935443521636,-0.22673280818314523,-0.6407109072157896,-0.5873081596625589,"(0.0, 0.0, 0.0, 0.0, 0.0, 0.0, 0.0, 0.0, 0.0)",-12.5,-2.875,0.0625,"(0.0, 0.0, 0.0, 0.0, 0.0, 0.0, 0.0, 0.0, 0.0)",0.806640625,0.5810546875,0.078125,"(0.0, 0.0, 0.0, 0.0, 0.0, 0.0, 0.0, 0.0, 0.0)"
2022/11/28/22:55:21.605241,213,1669697721,604816436,RU_myo,0.439383236318897,-0.227534477704799,-0.640367956029708,-0.5874515418210007,"(0.0, 0.0, 0.0, 0.0, 0.0, 0.0, 0.0, 0.0, 0.0)",-3.3125,-2.25,-0.0625,"(0.0, 0.0, 0.0, 0.0, 0.0, 0.0, 0.0, 0.0, 0.0)",0.80810546875,0.4931640625,0.0771484375,"(0.0, 0.0, 0.0, 0.0, 0.0, 0.0, 0.0, 0.0, 0.0)"
2022/11/28/22:55:21.626313,214,1669697721,625964403,RU_myo,0.4398756091609553,-0.2268652198211837,-0.6410453063712382,-0.5866025363737951,"(0.0, 0.0, 0.0, 0.0, 0.0, 0.0, 0.0, 0.0, 0.0)",7.625,1.25,-0.125,"(0.0, 0.0, 0.0, 0.0, 0.0, 0.0, 0.0, 0.0, 0.0)",0.80029296875,0.52392578125,0.0712890625,"(0.0, 0.0, 0.0, 0.0, 0.0, 0.0, 0.0, 0.0, 0.0)"
2022/11/28/22:55:21.642701,215,1669697721,642380475,RU_myo,0.43987549527629377,-0.22527826461284867,-0.6417165196801655,-0.5864803155418215,"(0.0, 0.0, 0.0, 0.0, 0.0, 0.0, 0.0, 0.0, 0.0)",5.625,4.3125,-1.625,"(0.0, 0.0, 0.0, 0.0, 0.0, 0.0, 0.0, 0.0, 0.0)",0.7939453125,0.60986328125,0.05517578125,"(0.0, 0.0, 0.0, 0.0, 0.0, 0.0, 0.0, 0.0, 0.0)"
2022/11/28/22:55:21.665483,216,1669697721,665177345,RU_myo,0.43913719485487857,-0.22442077352069334,-0.64152481655589,-0.587571059745367,"(0.0, 0.0, 0.0, 0.0, 0.0, 0.0, 0.0, 0.0, 0.0)",-4.9375,3.1875,-2.8125,"(0.0, 0.0, 0.0, 0.0, 0.0, 0.0, 0.0, 0.0, 0.0)",0.78564453125,0.62451171875,0.05322265625,"(0.0, 0.0, 0.0, 0.0, 0.0, 0.0, 0.0, 0.0, 0.0)"
2022/11/28/22:55:21.686268,217,1669697721,685594320,RU_myo,0.43854105129626747,-0.22503839333741657,-0.6406910807873235,-0.5886887181283924,"(0.0, 0.0, 0.0, 0.0, 0.0, 0.0, 0.0, 0.0, 0.0)",-9.25,-0.4375,-0.625,"(0.0, 0.0, 0.0, 0.0, 0.0, 0.0, 0.0, 0.0, 0.0)",0.7861328125,0.5439453125,0.07080078125,"(0.0, 0.0, 0.0, 0.0, 0.0, 0.0, 0.0, 0.0, 0.0)"
2022/11/28/22:55:21.703118,218,1669697721,702692508,RU_myo,0.4385178339166174,-0.22533164131108582,-0.640351999088817,-0.588962713611045,"(0.0, 0.0, 0.0, 0.0, 0.0, 0.0, 0.0, 0.0, 0.0)",-2.9375,0.0625,-1.0,"(0.0, 0.0, 0.0, 0.0, 0.0, 0.0, 0.0, 0.0, 0.0)",0.81884765625,0.5234375,0.0771484375,"(0.0, 0.0, 0.0, 0.0, 0.0, 0.0, 0.0, 0.0, 0.0)"
2022/11/28/22:55:21.725385,219,1669697721,724870920,RU_myo,0.4384789587944382,-0.2240612830922025,-0.6406285010448808,-0.5891755831351214,"(0.0, 0.0, 0.0, 0.0, 0.0, 0.0, 0.0, 0.0, 0.0)",2.6875,4.1875,-3.3125,"(0.0, 0.0, 0.0, 0.0, 0.0, 0.0, 0.0, 0.0, 0.0)",0.80029296875,0.58251953125,0.06689453125,"(0.0, 0.0, 0.0, 0.0, 0.0, 0.0, 0.0, 0.0, 0.0)"
2022/11/28/22:55:21.745910,220,1669697721,745595693,RU_myo,0.4379227916073016,-0.22240984705463512,-0.6408626218643437,-0.5899598193276901,"(0.0, 0.0, 0.0, 0.0, 0.0, 0.0, 0.0, 0.0, 0.0)",0.6875,4.25,-4.6875,"(0.0, 0.0, 0.0, 0.0, 0.0, 0.0, 0.0, 0.0, 0.0)",0.78759765625,0.63232421875,0.07421875,"(0.0, 0.0, 0.0, 0.0, 0.0, 0.0, 0.0, 0.0, 0.0)"
2022/11/28/22:55:21.762245,221,1669697721,761944770,RU_myo,0.43681554410025236,-0.22063548860170631,-0.6406668669023821,-0.5916571027676186,"(0.0, 0.0, 0.0, 0.0, 0.0, 0.0, 0.0, 0.0, 0.0)",-4.375,4.0625,-7.4375,"(0.0, 0.0, 0.0, 0.0, 0.0, 0.0, 0.0, 0.0, 0.0)",0.77880859375,0.65576171875,0.083984375,"(0.0, 0.0, 0.0, 0.0, 0.0, 0.0, 0.0, 0.0, 0.0)"
2022/11/28/22:55:21.785359,222,1669697721,784718751,RU_myo,0.43480461311289686,-0.21795161053146472,-0.6393287931439633,-0.5955675764676653,"(0.0, 0.0, 0.0, 0.0, 0.0, 0.0, 0.0, 0.0, 0.0)",-14.8125,8.625,-13.8125,"(0.0, 0.0, 0.0, 0.0, 0.0, 0.0, 0.0, 0.0, 0.0)",0.78125,0.73828125,0.1103515625,"(0.0, 0.0, 0.0, 0.0, 0.0, 0.0, 0.0, 0.0, 0.0)"
2022/11/28/22:55:21.806020,223,1669697721,805555820,RU_myo,0.43218125554008874,-0.21343565183218335,-0.636217682212948,-0.6024048852112238,"(0.0, 0.0, 0.0, 0.0, 0.0, 0.0, 0.0, 0.0, 0.0)",-26.0,17.75,-27.25,"(0.0, 0.0, 0.0, 0.0, 0.0, 0.0, 0.0, 0.0, 0.0)",0.77587890625,0.75927734375,0.169921875,"(0.0, 0.0, 0.0, 0.0, 0.0, 0.0, 0.0, 0.0, 0.0)"
2022/11/28/22:55:21.822577,224,1669697721,822252988,RU_myo,0.43003501113673304,-0.20787670280041337,-0.6324798212333188,-0.6097757303813652,"(0.0, 0.0, 0.0, 0.0, 0.0, 0.0, 0.0, 0.0, 0.0)",-25.125,23.5625,-34.9375,"(0.0, 0.0, 0.0, 0.0, 0.0, 0.0, 0.0, 0.0, 0.0)",0.78125,0.69287109375,0.2177734375,"(0.0, 0.0, 0.0, 0.0, 0.0, 0.0, 0.0, 0.0, 0.0)"
2022/11/28/22:55:21.844984,225,1669697721,844657182,RU_myo,0.42822735913539983,-0.20190651425597245,-0.6287910852070823,-0.6168280632015893,"(0.0, 0.0, 0.0, 0.0, 0.0, 0.0, 0.0, 0.0, 0.0)",-22.125,26.125,-38.1875,"(0.0, 0.0, 0.0, 0.0, 0.0, 0.0, 0.0, 0.0, 0.0)",0.80419921875,0.6669921875,0.2294921875,"(0.0, 0.0, 0.0, 0.0, 0.0, 0.0, 0.0, 0.0, 0.0)"
2022/11/28/22:55:21.865862,226,1669697721,865491151,RU_myo,0.42734651275345636,-0.19463125238085865,-0.624602143890156,-0.6239918232492627,"(0.0, 0.0, 0.0, 0.0, 0.0, 0.0, 0.0, 0.0, 0.0)",-20.625,36.4375,-40.75,"(0.0, 0.0, 0.0, 0.0, 0.0, 0.0, 0.0, 0.0, 0.0)",0.81396484375,0.66552734375,0.23193359375,"(0.0, 0.0, 0.0, 0.0, 0.0, 0.0, 0.0, 0.0, 0.0)"
2022/11/28/22:55:21.882639,227,1669697721,882180690,RU_myo,0.4272985220706445,-0.18719105373384753,-0.6187619506859298,-0.6320673467452642,"(0.0, 0.0, 0.0, 0.0, 0.0, 0.0, 0.0, 0.0, 0.0)",-29.875,48.0625,-41.25,"(0.0, 0.0, 0.0, 0.0, 0.0, 0.0, 0.0, 0.0, 0.0)",0.818359375,0.64794921875,0.2099609375,"(0.0, 0.0, 0.0, 0.0, 0.0, 0.0, 0.0, 0.0, 0.0)"
2022/11/28/22:55:21.905293,228,1669697721,904932498,RU_myo,0.42747218106022616,-0.17986300936386157,-0.6113023080381532,-0.6412693041690172,"(0.0, 0.0, 0.0, 0.0, 0.0, 0.0, 0.0, 0.0, 0.0)",-41.375,54.4375,-39.125,"(0.0, 0.0, 0.0, 0.0, 0.0, 0.0, 0.0, 0.0, 0.0)",0.80517578125,0.68798828125,0.21240234375,"(0.0, 0.0, 0.0, 0.0, 0.0, 0.0, 0.0, 0.0, 0.0)"
2022/11/28/22:55:21.926483,229,1669697721,925846576,RU_myo,0.42778301997179485,-0.17211415556006013,-0.6023995444602105,-0.651531422199873,"(0.0, 0.0, 0.0, 0.0, 0.0, 0.0, 0.0, 0.0, 0.0)",-48.5625,60.6875,-39.875,"(0.0, 0.0, 0.0, 0.0, 0.0, 0.0, 0.0, 0.0, 0.0)",0.77001953125,0.70458984375,0.251953125,"(0.0, 0.0, 0.0, 0.0, 0.0, 0.0, 0.0, 0.0, 0.0)"
2022/11/28/22:55:21.941927,230,1669697721,941565752,RU_myo,0.4280875402809527,-0.16417956705956127,-0.5917178076737719,-0.6630657310539307,"(0.0, 0.0, 0.0, 0.0, 0.0, 0.0, 0.0, 0.0, 0.0)",-59.3125,66.5625,-41.3125,"(0.0, 0.0, 0.0, 0.0, 0.0, 0.0, 0.0, 0.0, 0.0)",0.75927734375,0.7265625,0.28759765625,"(0.0, 0.0, 0.0, 0.0, 0.0, 0.0, 0.0, 0.0, 0.0)"
2022/11/28/22:55:21.964978,231,1669697721,964647531,RU_myo,0.42802803684441915,-0.15648993105220174,-0.579635286740546,-0.6755189379429675,"(0.0, 0.0, 0.0, 0.0, 0.0, 0.0, 0.0, 0.0, 0.0)",-70.5,70.5,-43.625,"(0.0, 0.0, 0.0, 0.0, 0.0, 0.0, 0.0, 0.0, 0.0)",0.75341796875,0.728515625,0.29345703125,"(0.0, 0.0, 0.0, 0.0, 0.0, 0.0, 0.0, 0.0, 0.0)"
2022/11/28/22:55:21.986239,232,1669697721,985725164,RU_myo,0.4279587869796131,-0.14946820726084892,-0.5669904636395616,-0.6877734698336081,"(0.0, 0.0, 0.0, 0.0, 0.0, 0.0, 0.0, 0.0, 0.0)",-73.625,70.75,-43.3125,"(0.0, 0.0, 0.0, 0.0, 0.0, 0.0, 0.0, 0.0, 0.0)",0.75439453125,0.69677734375,0.3046875,"(0.0, 0.0, 0.0, 0.0, 0.0, 0.0, 0.0, 0.0, 0.0)"
2022/11/28/22:55:22.001675,233,1669697722,1414060,RU_myo,0.4280352590563737,-0.1421494536350056,-0.5555364220634698,-0.6985403593184368,"(0.0, 0.0, 0.0, 0.0, 0.0, 0.0, 0.0, 0.0, 0.0)",-64.4375,69.5,-42.0625,"(0.0, 0.0, 0.0, 0.0, 0.0, 0.0, 0.0, 0.0, 0.0)",0.72021484375,0.65576171875,0.2998046875,"(0.0, 0.0, 0.0, 0.0, 0.0, 0.0, 0.0, 0.0, 0.0)"
2022/11/28/22:55:22.025313,234,1669697722,24830818,RU_myo,0.4284019849865561,-0.1342761599900874,-0.5457715557415279,-0.7075132939114059,"(0.0, 0.0, 0.0, 0.0, 0.0, 0.0, 0.0, 0.0, 0.0)",-50.9375,68.3125,-40.1875,"(0.0, 0.0, 0.0, 0.0, 0.0, 0.0, 0.0, 0.0, 0.0)",0.681640625,0.625,0.28515625,"(0.0, 0.0, 0.0, 0.0, 0.0, 0.0, 0.0, 0.0, 0.0)"
2022/11/28/22:55:22.047876,235,1669697722,47379493,RU_myo,0.42857934767015005,-0.1264620348009899,-0.5378298507076847,-0.7148889061891865,"(0.0, 0.0, 0.0, 0.0, 0.0, 0.0, 0.0, 0.0, 0.0)",-41.4375,64.125,-38.1875,"(0.0, 0.0, 0.0, 0.0, 0.0, 0.0, 0.0, 0.0, 0.0)",0.66162109375,0.6259765625,0.25390625,"(0.0, 0.0, 0.0, 0.0, 0.0, 0.0, 0.0, 0.0, 0.0)"
2022/11/28/22:55:22.068556,236,1669697722,68040847,RU_myo,0.4286352336771843,-0.11938068020398299,-0.5314759525645623,-0.7208005282254801,"(0.0, 0.0, 0.0, 0.0, 0.0, 0.0, 0.0, 0.0, 0.0)",-31.6875,56.0625,-34.9375,"(0.0, 0.0, 0.0, 0.0, 0.0, 0.0, 0.0, 0.0, 0.0)",0.630859375,0.591796875,0.25537109375,"(0.0, 0.0, 0.0, 0.0, 0.0, 0.0, 0.0, 0.0, 0.0)"
2022/11/28/22:55:22.085160,237,1669697722,84701776,RU_myo,0.4288801272015805,-0.11297240863101259,-0.5272656067873137,-0.7247689640698403,"(0.0, 0.0, 0.0, 0.0, 0.0, 0.0, 0.0, 0.0, 0.0)",-17.875,46.625,-29.3125,"(0.0, 0.0, 0.0, 0.0, 0.0, 0.0, 0.0, 0.0, 0.0)",0.6103515625,0.572265625,0.265625,"(0.0, 0.0, 0.0, 0.0, 0.0, 0.0, 0.0, 0.0, 0.0)"
2022/11/28/22:55:22.107975,238,1669697722,107279062,RU_myo,0.42938255935629277,-0.10675054673975211,-0.5255129830927762,-0.726684968258141,"(0.0, 0.0, 0.0, 0.0, 0.0, 0.0, 0.0, 0.0, 0.0)",-3.0625,40.1875,-24.375,"(0.0, 0.0, 0.0, 0.0, 0.0, 0.0, 0.0, 0.0, 0.0)",0.587890625,0.5595703125,0.23681640625,"(0.0, 0.0, 0.0, 0.0, 0.0, 0.0, 0.0, 0.0, 0.0)"
2022/11/28/22:55:22.121984,239,1669697722,121643304,RU_myo,0.4298045771651403,-0.10198856126710444,-0.5247741770045267,-0.7276526794891797,"(0.0, 0.0, 0.0, 0.0, 0.0, 0.0, 0.0, 0.0, 0.0)",0.3125,30.8125,-18.5625,"(0.0, 0.0, 0.0, 0.0, 0.0, 0.0, 0.0, 0.0, 0.0)",0.59716796875,0.57763671875,0.25,"(0.0, 0.0, 0.0, 0.0, 0.0, 0.0, 0.0, 0.0, 0.0)"
2022/11/28/22:55:22.145741,240,1669697722,145094394,RU_myo,0.4301652834624541,-0.09832523718189749,-0.5247674669707975,-0.727948543680007,"(0.0, 0.0, 0.0, 0.0, 0.0, 0.0, 0.0, 0.0, 0.0)",4.3125,22.125,-13.1875,"(0.0, 0.0, 0.0, 0.0, 0.0, 0.0, 0.0, 0.0, 0.0)",0.5693359375,0.583984375,0.28515625,"(0.0, 0.0, 0.0, 0.0, 0.0, 0.0, 0.0, 0.0, 0.0)"
2022/11/28/22:55:22.167364,241,1669697722,167068719,RU_myo,0.43046838323288383,-0.09484586240520367,-0.5259245793729987,-0.7273957452671926,"(0.0, 0.0, 0.0, 0.0, 0.0, 0.0, 0.0, 0.0, 0.0)",13.375,14.5,-9.5625,"(0.0, 0.0, 0.0, 0.0, 0.0, 0.0, 0.0, 0.0, 0.0)",0.55078125,0.607421875,0.34326171875,"(0.0, 0.0, 0.0, 0.0, 0.0, 0.0, 0.0, 0.0, 0.0)"
2022/11/28/22:55:22.182103,242,1669697722,181788206,RU_myo,0.430956126879347,-0.09154994906090079,-0.5272056399920407,-0.7266014290466827,"(0.0, 0.0, 0.0, 0.0, 0.0, 0.0, 0.0, 0.0, 0.0)",14.0,12.625,-5.25,"(0.0, 0.0, 0.0, 0.0, 0.0, 0.0, 0.0, 0.0, 0.0)",0.52587890625,0.6484375,0.35595703125,"(0.0, 0.0, 0.0, 0.0, 0.0, 0.0, 0.0, 0.0, 0.0)"
2022/11/28/22:55:22.204936,243,1669697722,204531669,RU_myo,0.43114503747911187,-0.08941498866179202,-0.5271517113118755,-0.7267943242215833,"(0.0, 0.0, 0.0, 0.0, 0.0, 0.0, 0.0, 0.0, 0.0)",1.1875,11.0625,-3.875,"(0.0, 0.0, 0.0, 0.0, 0.0, 0.0, 0.0, 0.0, 0.0)",0.53857421875,0.68798828125,0.36279296875,"(0.0, 0.0, 0.0, 0.0, 0.0, 0.0, 0.0, 0.0, 0.0)"
2022/11/28/22:55:22.227452,244,1669697722,227154254,RU_myo,0.4312583238364456,-0.08868077335612164,-0.5254320563130428,-0.7280612149794734,"(0.0, 0.0, 0.0, 0.0, 0.0, 0.0, 0.0, 0.0, 0.0)",-10.9375,9.0,-2.375,"(0.0, 0.0, 0.0, 0.0, 0.0, 0.0, 0.0, 0.0, 0.0)",0.5458984375,0.68603515625,0.39111328125,"(0.0, 0.0, 0.0, 0.0, 0.0, 0.0, 0.0, 0.0, 0.0)"
2022/11/28/22:55:22.241986,245,1669697722,241715192,RU_myo,0.43180362753488183,-0.08855788884142947,-0.523657261377991,-0.7290310008345108,"(0.0, 0.0, 0.0, 0.0, 0.0, 0.0, 0.0, 0.0, 0.0)",-10.375,7.125,0.1875,"(0.0, 0.0, 0.0, 0.0, 0.0, 0.0, 0.0, 0.0, 0.0)",0.564453125,0.66552734375,0.4130859375,"(0.0, 0.0, 0.0, 0.0, 0.0, 0.0, 0.0, 0.0, 0.0)"
2022/11/28/22:55:22.265533,246,1669697722,265086412,RU_myo,0.43222084208096656,-0.0889830539048361,-0.5226686376138658,-0.7294413307754466,"(0.0, 0.0, 0.0, 0.0, 0.0, 0.0, 0.0, 0.0, 0.0)",-7.125,3.3125,2.0,"(0.0, 0.0, 0.0, 0.0, 0.0, 0.0, 0.0, 0.0, 0.0)",0.56982421875,0.66162109375,0.40087890625,"(0.0, 0.0, 0.0, 0.0, 0.0, 0.0, 0.0, 0.0, 0.0)"
2022/11/28/22:55:22.287936,247,1669697722,287494897,RU_myo,0.4326035650806077,-0.08935265509001265,-0.5225055192797803,-0.7292861172613123,"(0.0, 0.0, 0.0, 0.0, 0.0, 0.0, 0.0, 0.0, 0.0)",-2.3125,1.125,2.9375,"(0.0, 0.0, 0.0, 0.0, 0.0, 0.0, 0.0, 0.0, 0.0)",0.576171875,0.671875,0.4013671875,"(0.0, 0.0, 0.0, 0.0, 0.0, 0.0, 0.0, 0.0, 0.0)"
2022/11/28/22:55:22.301939,248,1669697722,301587820,RU_myo,0.43290506583835237,-0.08965706213401094,-0.5232334878658106,-0.7285475498255198,"(0.0, 0.0, 0.0, 0.0, 0.0, 0.0, 0.0, 0.0, 0.0)",2.6875,-1.375,4.3125,"(0.0, 0.0, 0.0, 0.0, 0.0, 0.0, 0.0, 0.0, 0.0)",0.58251953125,0.7021484375,0.40478515625,"(0.0, 0.0, 0.0, 0.0, 0.0, 0.0, 0.0, 0.0, 0.0)"
2022/11/28/22:55:22.325048,249,1669697722,324653387,RU_myo,0.43272917541452566,-0.09002475793179483,-0.5244018441694788,-0.7277662464940485,"(0.0, 0.0, 0.0, 0.0, 0.0, 0.0, 0.0, 0.0, 0.0)",3.375,-4.4375,4.0,"(0.0, 0.0, 0.0, 0.0, 0.0, 0.0, 0.0, 0.0, 0.0)",0.5634765625,0.7177734375,0.40283203125,"(0.0, 0.0, 0.0, 0.0, 0.0, 0.0, 0.0, 0.0, 0.0)"
2022/11/28/22:55:22.347895,250,1669697722,347562074,RU_myo,0.43243796928789424,-0.09045491467673385,-0.525212240751211,-0.7273014597084754,"(0.0, 0.0, 0.0, 0.0, 0.0, 0.0, 0.0, 0.0, 0.0)",2.0,-5.6875,3.75,"(0.0, 0.0, 0.0, 0.0, 0.0, 0.0, 0.0, 0.0, 0.0)",0.5595703125,0.72705078125,0.42431640625,"(0.0, 0.0, 0.0, 0.0, 0.0, 0.0, 0.0, 0.0, 0.0)"
2022/11/28/22:55:22.361787,251,1669697722,361325979,RU_myo,0.4322515184161332,-0.09075939111618046,-0.5255743893082918,-0.7271127278863873,"(0.0, 0.0, 0.0, 0.0, 0.0, 0.0, 0.0, 0.0, 0.0)",0.75,-3.75,2.4375,"(0.0, 0.0, 0.0, 0.0, 0.0, 0.0, 0.0, 0.0, 0.0)",0.57861328125,0.7294921875,0.4482421875,"(0.0, 0.0, 0.0, 0.0, 0.0, 0.0, 0.0, 0.0, 0.0)"
2022/11/28/22:55:22.385348,252,1669697722,384891510,RU_myo,0.43212399159727927,-0.09112445190038672,-0.5256287875191764,-0.7271035468783034,"(0.0, 0.0, 0.0, 0.0, 0.0, 0.0, 0.0, 0.0, 0.0)",-1.625,-2.4375,2.3125,"(0.0, 0.0, 0.0, 0.0, 0.0, 0.0, 0.0, 0.0, 0.0)",0.58447265625,0.72607421875,0.4404296875,"(0.0, 0.0, 0.0, 0.0, 0.0, 0.0, 0.0, 0.0, 0.0)"
2022/11/28/22:55:22.407514,253,1669697722,407173395,RU_myo,0.4319164605993409,-0.09136342256849135,-0.5254769995422248,-0.727306550934343,"(0.0, 0.0, 0.0, 0.0, 0.0, 0.0, 0.0, 0.0, 0.0)",-2.5,-1.875,1.1875,"(0.0, 0.0, 0.0, 0.0, 0.0, 0.0, 0.0, 0.0, 0.0)",0.57861328125,0.71826171875,0.43896484375,"(0.0, 0.0, 0.0, 0.0, 0.0, 0.0, 0.0, 0.0, 0.0)"
2022/11/28/22:55:22.422386,254,1669697722,422128200,RU_myo,0.4318830714673464,-0.0913082355730851,-0.5254495989630278,-0.7273531038265074,"(0.0, 0.0, 0.0, 0.0, 0.0, 0.0, 0.0, 0.0, 0.0)",-0.875,0.4375,0.1875,"(0.0, 0.0, 0.0, 0.0, 0.0, 0.0, 0.0, 0.0, 0.0)",0.5859375,0.7109375,0.45458984375,"(0.0, 0.0, 0.0, 0.0, 0.0, 0.0, 0.0, 0.0, 0.0)"
2022/11/28/22:55:22.445399,255,1669697722,445038557,RU_myo,0.4323758487411805,-0.091126078793137,-0.525149887432117,-0.7272996348955261,"(0.0, 0.0, 0.0, 0.0, 0.0, 0.0, 0.0, 0.0, 0.0)",-0.875,3.25,1.4375,"(0.0, 0.0, 0.0, 0.0, 0.0, 0.0, 0.0, 0.0, 0.0)",0.60595703125,0.70556640625,0.435546875,"(0.0, 0.0, 0.0, 0.0, 0.0, 0.0, 0.0, 0.0, 0.0)"
2022/11/28/22:55:22.468056,256,1669697722,467573165,RU_myo,0.4325550574034844,-0.09100318760950969,-0.5247789450479976,-0.727476185860326,"(0.0, 0.0, 0.0, 0.0, 0.0, 0.0, 0.0, 0.0, 0.0)",-3.125,2.9375,0.6875,"(0.0, 0.0, 0.0, 0.0, 0.0, 0.0, 0.0, 0.0, 0.0)",0.6005859375,0.7158203125,0.421875,"(0.0, 0.0, 0.0, 0.0, 0.0, 0.0, 0.0, 0.0, 0.0)"
2022/11/28/22:55:22.481593,257,1669697722,481342792,RU_myo,0.4323649975509859,-0.09087965575288227,-0.524465333703504,-0.7278306882828215,"(0.0, 0.0, 0.0, 0.0, 0.0, 0.0, 0.0, 0.0, 0.0)",-3.25,1.0,-0.75,"(0.0, 0.0, 0.0, 0.0, 0.0, 0.0, 0.0, 0.0, 0.0)",0.576171875,0.70458984375,0.4267578125,"(0.0, 0.0, 0.0, 0.0, 0.0, 0.0, 0.0, 0.0, 0.0)"
2022/11/28/22:55:22.505220,258,1669697722,504715681,RU_myo,0.4324884390430917,-0.09063580750479694,-0.5239787255411998,-0.7281381707287727,"(0.0, 0.0, 0.0, 0.0, 0.0, 0.0, 0.0, 0.0, 0.0)",-2.25,2.375,-0.25,"(0.0, 0.0, 0.0, 0.0, 0.0, 0.0, 0.0, 0.0, 0.0)",0.57177734375,0.68505859375,0.4345703125,"(0.0, 0.0, 0.0, 0.0, 0.0, 0.0, 0.0, 0.0, 0.0)"
2022/11/28/22:55:22.527658,259,1669697722,527295351,RU_myo,0.4329114009514815,-0.09032974388949565,-0.5236073465053941,-0.7281920096929545,"(0.0, 0.0, 0.0, 0.0, 0.0, 0.0, 0.0, 0.0, 0.0)",-1.375,3.875,1.0625,"(0.0, 0.0, 0.0, 0.0, 0.0, 0.0, 0.0, 0.0, 0.0)",0.59033203125,0.68994140625,0.42431640625,"(0.0, 0.0, 0.0, 0.0, 0.0, 0.0, 0.0, 0.0, 0.0)"
2022/11/28/22:55:22.548380,260,1669697722,547982692,RU_myo,0.4331033696751353,-0.09008745400796218,-0.5231297888226585,-0.7284510593394503,"(0.0, 0.0, 0.0, 0.0, 0.0, 0.0, 0.0, 0.0, 0.0)",-3.5,3.5625,0.8125,"(0.0, 0.0, 0.0, 0.0, 0.0, 0.0, 0.0, 0.0, 0.0)",0.58349609375,0.70849609375,0.4228515625,"(0.0, 0.0, 0.0, 0.0, 0.0, 0.0, 0.0, 0.0, 0.0)"
2022/11/28/22:55:22.555467,261,1669697722,554933786,RU_myo,0.4332233066761044,-0.0902090796375433,-0.5223337642341648,-0.728935749736928,"(0.0, 0.0, 0.0, 0.0, 0.0, 0.0, 0.0, 0.0, 0.0)",-5.5625,1.875,1.125,"(0.0, 0.0, 0.0, 0.0, 0.0, 0.0, 0.0, 0.0, 0.0)",0.5673828125,0.6943359375,0.43408203125,"(0.0, 0.0, 0.0, 0.0, 0.0, 0.0, 0.0, 0.0, 0.0)"
2022/11/28/22:55:22.570123,262,1669697722,569813728,RU_myo,0.4333353513049922,-0.09045112544140822,-0.5212841176754842,-0.7295902520422362,"(0.0, 0.0, 0.0, 0.0, 0.0, 0.0, 0.0, 0.0, 0.0)",-7.5625,1.5,1.375,"(0.0, 0.0, 0.0, 0.0, 0.0, 0.0, 0.0, 0.0, 0.0)",0.56591796875,0.69287109375,0.4384765625,"(0.0, 0.0, 0.0, 0.0, 0.0, 0.0, 0.0, 0.0, 0.0)"
2022/11/28/22:55:22.592609,263,1669697722,592264175,RU_myo,0.43370260919547615,-0.09069547949120145,-0.5198205914041473,-0.7303854664005436,"(0.0, 0.0, 0.0, 0.0, 0.0, 0.0, 0.0, 0.0, 0.0)",-8.4375,3.5,2.0625,"(0.0, 0.0, 0.0, 0.0, 0.0, 0.0, 0.0, 0.0, 0.0)",0.5771484375,0.6962890625,0.45751953125,"(0.0, 0.0, 0.0, 0.0, 0.0, 0.0, 0.0, 0.0, 0.0)"
2022/11/28/22:55:22.615054,264,1669697722,614761590,RU_myo,0.43444247658903545,-0.09094117590863485,-0.5179374622554868,-0.7312525023901705,"(0.0, 0.0, 0.0, 0.0, 0.0, 0.0, 0.0, 0.0, 0.0)",-10.8125,5.9375,2.5625,"(0.0, 0.0, 0.0, 0.0, 0.0, 0.0, 0.0, 0.0, 0.0)",0.59912109375,0.69775390625,0.462890625,"(0.0, 0.0, 0.0, 0.0, 0.0, 0.0, 0.0, 0.0, 0.0)"
2022/11/28/22:55:22.630199,265,1669697722,629799604,RU_myo,0.43530337654152607,-0.09094251697236033,-0.5153816196742353,-0.732545025974677,"(0.0, 0.0, 0.0, 0.0, 0.0, 0.0, 0.0, 0.0, 0.0)",-13.125,8.4375,2.0625,"(0.0, 0.0, 0.0, 0.0, 0.0, 0.0, 0.0, 0.0, 0.0)",0.59765625,0.70458984375,0.49169921875,"(0.0, 0.0, 0.0, 0.0, 0.0, 0.0, 0.0, 0.0, 0.0)"
2022/11/28/22:55:22.653199,266,1669697722,652535915,RU_myo,0.43644067640751383,-0.09038856688009062,-0.5123035991839842,-0.7340943162955637,"(0.0, 0.0, 0.0, 0.0, 0.0, 0.0, 0.0, 0.0, 0.0)",-13.6875,12.3125,1.625,"(0.0, 0.0, 0.0, 0.0, 0.0, 0.0, 0.0, 0.0, 0.0)",0.611328125,0.7294921875,0.53466796875,"(0.0, 0.0, 0.0, 0.0, 0.0, 0.0, 0.0, 0.0, 0.0)"
2022/11/28/22:55:22.675351,267,1669697722,674963712,RU_myo,0.437553553455919,-0.0881942927526577,-0.5093296699106771,-0.735766227773902,"(0.0, 0.0, 0.0, 0.0, 0.0, 0.0, 0.0, 0.0, 0.0)",-9.375,17.375,-1.875,"(0.0, 0.0, 0.0, 0.0, 0.0, 0.0, 0.0, 0.0, 0.0)",0.60302734375,0.76318359375,0.56787109375,"(0.0, 0.0, 0.0, 0.0, 0.0, 0.0, 0.0, 0.0, 0.0)"
2022/11/28/22:55:22.690231,268,1669697722,689791679,RU_myo,0.43888747051037436,-0.08422538023978815,-0.5065729391233635,-0.7373382744035367,"(0.0, 0.0, 0.0, 0.0, 0.0, 0.0, 0.0, 0.0, 0.0)",-4.0,24.6875,-6.0,"(0.0, 0.0, 0.0, 0.0, 0.0, 0.0, 0.0, 0.0, 0.0)",0.59521484375,0.77587890625,0.58544921875,"(0.0, 0.0, 0.0, 0.0, 0.0, 0.0, 0.0, 0.0, 0.0)"
2022/11/28/22:55:22.712615,269,1669697722,712198257,RU_myo,0.44071460734356416,-0.07915895938576412,-0.5022352172594086,-0.7397731277678079,"(0.0, 0.0, 0.0, 0.0, 0.0, 0.0, 0.0, 0.0, 0.0)",-8.9375,34.875,-8.625,"(0.0, 0.0, 0.0, 0.0, 0.0, 0.0, 0.0, 0.0, 0.0)",0.58056640625,0.7568359375,0.6005859375,"(0.0, 0.0, 0.0, 0.0, 0.0, 0.0, 0.0, 0.0, 0.0)"
2022/11/28/22:55:22.735573,270,1669697722,735025405,RU_myo,0.44242679768416004,-0.07287316822111838,-0.49723425586051206,-0.7427692271784009,"(0.0, 0.0, 0.0, 0.0, 0.0, 0.0, 0.0, 0.0, 0.0)",-11.125,42.25,-13.875,"(0.0, 0.0, 0.0, 0.0, 0.0, 0.0, 0.0, 0.0, 0.0)",0.57421875,0.76904296875,0.6015625,"(0.0, 0.0, 0.0, 0.0, 0.0, 0.0, 0.0, 0.0, 0.0)"
2022/11/28/22:55:22.750379,271,1669697722,749975442,RU_myo,0.4436550823120608,-0.06579449425401039,-0.4920549282707159,-0.7461388610902384,"(0.0, 0.0, 0.0, 0.0, 0.0, 0.0, 0.0, 0.0, 0.0)",-12.75,45.1875,-17.9375,"(0.0, 0.0, 0.0, 0.0, 0.0, 0.0, 0.0, 0.0, 0.0)",0.55078125,0.78369140625,0.59912109375,"(0.0, 0.0, 0.0, 0.0, 0.0, 0.0, 0.0, 0.0, 0.0)"
2022/11/28/22:55:22.772668,272,1669697722,772283792,RU_myo,0.44579120408647316,-0.059630066592618325,-0.48473079721450846,-0.7501669892424482,"(0.0, 0.0, 0.0, 0.0, 0.0, 0.0, 0.0, 0.0, 0.0)",-24.1875,49.8125,-14.5,"(0.0, 0.0, 0.0, 0.0, 0.0, 0.0, 0.0, 0.0, 0.0)",0.5595703125,0.7646484375,0.63916015625,"(0.0, 0.0, 0.0, 0.0, 0.0, 0.0, 0.0, 0.0, 0.0)"
2022/11/28/22:55:22.795297,273,1669697722,794832468,RU_myo,0.44912996584571846,-0.0527311170662727,-0.4750072732949079,-0.7548972071675081,"(0.0, 0.0, 0.0, 0.0, 0.0, 0.0, 0.0, 0.0, 0.0)",-30.625,61.75,-14.5,"(0.0, 0.0, 0.0, 0.0, 0.0, 0.0, 0.0, 0.0, 0.0)",0.6044921875,0.77001953125,0.74267578125,"(0.0, 0.0, 0.0, 0.0, 0.0, 0.0, 0.0, 0.0, 0.0)"
2022/11/28/22:55:22.809576,274,1669697722,809419155,RU_myo,0.45251818096469876,-0.04345737049458666,-0.4659460201624643,-0.7591001641027729,"(0.0, 0.0, 0.0, 0.0, 0.0, 0.0, 0.0, 0.0, 0.0)",-23.0,71.5,-17.875,"(0.0, 0.0, 0.0, 0.0, 0.0, 0.0, 0.0, 0.0, 0.0)",0.49951171875,0.7099609375,0.65087890625,"(0.0, 0.0, 0.0, 0.0, 0.0, 0.0, 0.0, 0.0, 0.0)"
2022/11/28/22:55:22.832753,275,1669697722,832362413,RU_myo,0.45531939397266824,-0.04009984475067601,-0.45635698508493844,-0.7634229195455945,"(0.0, 0.0, 0.0, 0.0, 0.0, 0.0, 0.0, 0.0, 0.0)",-48.8125,53.4375,-8.0,"(0.0, 0.0, 0.0, 0.0, 0.0, 0.0, 0.0, 0.0, 0.0)",0.4755859375,0.5849609375,0.41064453125,"(0.0, 0.0, 0.0, 0.0, 0.0, 0.0, 0.0, 0.0, 0.0)"
2022/11/28/22:55:22.855234,276,1669697722,854882001,RU_myo,0.4598877421020071,-0.038145964009788244,-0.442432148971128,-0.7689616008949154,"(0.0, 0.0, 0.0, 0.0, 0.0, 0.0, 0.0, 0.0, 0.0)",-68.4375,64.375,-3.875,"(0.0, 0.0, 0.0, 0.0, 0.0, 0.0, 0.0, 0.0, 0.0)",0.5859375,0.5859375,0.56787109375,"(0.0, 0.0, 0.0, 0.0, 0.0, 0.0, 0.0, 0.0, 0.0)"
2022/11/28/22:55:22.869896,277,1669697722,869678735,RU_myo,0.4655617804380323,-0.031981433265538664,-0.4318714156239534,-0.7718267272442786,"(0.0, 0.0, 0.0, 0.0, 0.0, 0.0, 0.0, 0.0, 0.0)",-29.875,71.6875,-2.75,"(0.0, 0.0, 0.0, 0.0, 0.0, 0.0, 0.0, 0.0, 0.0)",0.56494140625,0.59228515625,0.7314453125,"(0.0, 0.0, 0.0, 0.0, 0.0, 0.0, 0.0, 0.0, 0.0)"
2022/11/28/22:55:22.892677,278,1669697722,892264604,RU_myo,0.47190961578548013,-0.022582327708306732,-0.4272942602320417,-0.7708508079889568,"(0.0, 0.0, 0.0, 0.0, 0.0, 0.0, 0.0, 0.0, 0.0)",14.875,68.9375,3.9375,"(0.0, 0.0, 0.0, 0.0, 0.0, 0.0, 0.0, 0.0, 0.0)",0.50146484375,0.59228515625,0.73486328125,"(0.0, 0.0, 0.0, 0.0, 0.0, 0.0, 0.0, 0.0, 0.0)"
2022/11/28/22:55:22.915267,279,1669697722,914868116,RU_myo,0.47875615047271153,-0.013549702371869195,-0.42364182055470306,-0.7688540575605236,"(0.0, 0.0, 0.0, 0.0, 0.0, 0.0, 0.0, 0.0, 0.0)",16.125,69.375,9.4375,"(0.0, 0.0, 0.0, 0.0, 0.0, 0.0, 0.0, 0.0, 0.0)",0.4658203125,0.55517578125,0.60009765625,"(0.0, 0.0, 0.0, 0.0, 0.0, 0.0, 0.0, 0.0, 0.0)"
2022/11/28/22:55:22.929482,280,1669697722,929331302,RU_myo,0.48594526604157423,-0.005920207335598179,-0.4192971587171081,-0.7668194326232528,"(0.0, 0.0, 0.0, 0.0, 0.0, 0.0, 0.0, 0.0, 0.0)",8.75,67.3125,13.75,"(0.0, 0.0, 0.0, 0.0, 0.0, 0.0, 0.0, 0.0, 0.0)",0.4453125,0.49951171875,0.53759765625,"(0.0, 0.0, 0.0, 0.0, 0.0, 0.0, 0.0, 0.0, 0.0)"
2022/11/28/22:55:22.953165,281,1669697722,952506065,RU_myo,0.4930943654251929,0.0015258521024421122,-0.416862794387185,-0.7635974261461306,"(0.0, 0.0, 0.0, 0.0, 0.0, 0.0, 0.0, 0.0, 0.0)",14.625,63.5625,17.75,"(0.0, 0.0, 0.0, 0.0, 0.0, 0.0, 0.0, 0.0, 0.0)",0.43212890625,0.4990234375,0.443359375,"(0.0, 0.0, 0.0, 0.0, 0.0, 0.0, 0.0, 0.0, 0.0)"
2022/11/28/22:55:22.975616,282,1669697722,975142955,RU_myo,0.5003613412840547,0.007690354842863002,-0.41503502326562236,-0.7598192653873136,"(0.0, 0.0, 0.0, 0.0, 0.0, 0.0, 0.0, 0.0, 0.0)",9.5625,59.5625,23.5625,"(0.0, 0.0, 0.0, 0.0, 0.0, 0.0, 0.0, 0.0, 0.0)",0.44384765625,0.55419921875,0.37109375,"(0.0, 0.0, 0.0, 0.0, 0.0, 0.0, 0.0, 0.0, 0.0)"
2022/11/28/22:55:22.990378,283,1669697722,989967107,RU_myo,0.5064657068963848,0.013061419772936412,-0.4141812830801238,-0.7561585493780805,"(0.0, 0.0, 0.0, 0.0, 0.0, 0.0, 0.0, 0.0, 0.0)",4.3125,49.875,24.5,"(0.0, 0.0, 0.0, 0.0, 0.0, 0.0, 0.0, 0.0, 0.0)",0.40087890625,0.646484375,0.31689453125,"(0.0, 0.0, 0.0, 0.0, 0.0, 0.0, 0.0, 0.0, 0.0)"
2022/11/28/22:55:23.012788,284,1669697723,12348413,RU_myo,0.5112646505734457,0.015807275217682038,-0.41269805027786083,-0.7536835585450019,"(0.0, 0.0, 0.0, 0.0, 0.0, 0.0, 0.0, 0.0, 0.0)",-9.0625,34.9375,24.25,"(0.0, 0.0, 0.0, 0.0, 0.0, 0.0, 0.0, 0.0, 0.0)",0.3662109375,0.68798828125,0.34814453125,"(0.0, 0.0, 0.0, 0.0, 0.0, 0.0, 0.0, 0.0, 0.0)"
2022/11/28/22:55:23.035445,285,1669697723,34822225,RU_myo,0.5145647028803417,0.016295667853048423,-0.41056538444740354,-0.7525913119698131,"(0.0, 0.0, 0.0, 0.0, 0.0, 0.0, 0.0, 0.0, 0.0)",-17.0625,20.8125,18.6875,"(0.0, 0.0, 0.0, 0.0, 0.0, 0.0, 0.0, 0.0, 0.0)",0.35009765625,0.654296875,0.421875,"(0.0, 0.0, 0.0, 0.0, 0.0, 0.0, 0.0, 0.0, 0.0)"
2022/11/28/22:55:23.052821,286,1669697723,52258968,RU_myo,0.5168272809173815,0.015990640954222243,-0.4092871688511999,-0.7517432237906694,"(0.0, 0.0, 0.0, 0.0, 0.0, 0.0, 0.0, 0.0, 0.0)",-15.0,11.125,15.875,"(0.0, 0.0, 0.0, 0.0, 0.0, 0.0, 0.0, 0.0, 0.0)",0.36474609375,0.6865234375,0.490234375,"(0.0, 0.0, 0.0, 0.0, 0.0, 0.0, 0.0, 0.0, 0.0)"
2022/11/28/22:55:23.072896,287,1669697723,72365999,RU_myo,0.5185865954689057,0.01519690034974197,-0.4089125796918522,-0.7507512899685782,"(0.0, 0.0, 0.0, 0.0, 0.0, 0.0, 0.0, 0.0, 0.0)",-7.875,4.3125,13.4375,"(0.0, 0.0, 0.0, 0.0, 0.0, 0.0, 0.0, 0.0, 0.0)",0.4072265625,0.67822265625,0.58056640625,"(0.0, 0.0, 0.0, 0.0, 0.0, 0.0, 0.0, 0.0, 0.0)"
2022/11/28/22:55:23.095246,288,1669697723,94944000,RU_myo,0.520150547085886,0.014587653221488708,-0.4099801953503751,-0.7490973555955268,"(0.0, 0.0, 0.0, 0.0, 0.0, 0.0, 0.0, 0.0, 0.0)",2.9375,0.25,13.1875,"(0.0, 0.0, 0.0, 0.0, 0.0, 0.0, 0.0, 0.0, 0.0)",0.4267578125,0.6640625,0.61865234375,"(0.0, 0.0, 0.0, 0.0, 0.0, 0.0, 0.0, 0.0, 0.0)"
2022/11/28/22:55:23.111809,289,1669697723,111513137,RU_myo,0.5213585921622786,0.015197645685835565,-0.41289989182601444,-0.7466377496980983,"(0.0, 0.0, 0.0, 0.0, 0.0, 0.0, 0.0, 0.0, 0.0)",15.625,-0.75,11.75,"(0.0, 0.0, 0.0, 0.0, 0.0, 0.0, 0.0, 0.0, 0.0)",0.45703125,0.732421875,0.6630859375,"(0.0, 0.0, 0.0, 0.0, 0.0, 0.0, 0.0, 0.0, 0.0)"
2022/11/28/22:55:23.132918,290,1669697723,132500886,RU_myo,0.5215902510044638,0.01708931316185933,-0.4167351081041983,-0.7443006214602662,"(0.0, 0.0, 0.0, 0.0, 0.0, 0.0, 0.0, 0.0, 0.0)",20.6875,-1.4375,6.6875,"(0.0, 0.0, 0.0, 0.0, 0.0, 0.0, 0.0, 0.0, 0.0)",0.4521484375,0.8076171875,0.67919921875,"(0.0, 0.0, 0.0, 0.0, 0.0, 0.0, 0.0, 0.0, 0.0)"
2022/11/28/22:55:23.155330,291,1669697723,154810428,RU_myo,0.5216097593615601,0.017944449947612764,-0.41858176102288547,-0.7432298197689817,"(0.0, 0.0, 0.0, 0.0, 0.0, 0.0, 0.0, 0.0, 0.0)",10.25,-1.3125,3.0,"(0.0, 0.0, 0.0, 0.0, 0.0, 0.0, 0.0, 0.0, 0.0)",0.451171875,0.7509765625,0.7001953125,"(0.0, 0.0, 0.0, 0.0, 0.0, 0.0, 0.0, 0.0, 0.0)"
2022/11/28/22:55:23.171744,292,1669697723,171377897,RU_myo,0.5220352501119584,0.01770024816233695,-0.41882449272398675,-0.7428000694332438,"(0.0, 0.0, 0.0, 0.0, 0.0, 0.0, 0.0, 0.0, 0.0)",1.375,-0.1875,2.75,"(0.0, 0.0, 0.0, 0.0, 0.0, 0.0, 0.0, 0.0, 0.0)",0.4599609375,0.69384765625,0.7021484375,"(0.0, 0.0, 0.0, 0.0, 0.0, 0.0, 0.0, 0.0, 0.0)"
2022/11/28/22:55:23.192716,293,1669697723,192324161,RU_myo,0.5219649620349263,0.018066139939468918,-0.419244308257473,-0.7426037994713457,"(0.0, 0.0, 0.0, 0.0, 0.0, 0.0, 0.0, 0.0, 0.0)",0.9375,1.5625,0.0,"(0.0, 0.0, 0.0, 0.0, 0.0, 0.0, 0.0, 0.0, 0.0)",0.44140625,0.70068359375,0.654296875,"(0.0, 0.0, 0.0, 0.0, 0.0, 0.0, 0.0, 0.0, 0.0)"
2022/11/28/22:55:23.215037,294,1669697723,214631080,RU_myo,0.5216518915111299,0.017394499716938343,-0.4183834931916222,-0.7433249545704985,"(0.0, 0.0, 0.0, 0.0, 0.0, 0.0, 0.0, 0.0, 0.0)",-9.875,0.625,-2.125,"(0.0, 0.0, 0.0, 0.0, 0.0, 0.0, 0.0, 0.0, 0.0)",0.43603515625,0.6787109375,0.6328125,"(0.0, 0.0, 0.0, 0.0, 0.0, 0.0, 0.0, 0.0, 0.0)"
2022/11/28/22:55:23.232423,295,1669697723,232053995,RU_myo,0.5212872692566332,0.016356982573560202,-0.41691995507458857,-0.7444258076481858,"(0.0, 0.0, 0.0, 0.0, 0.0, 0.0, 0.0, 0.0, 0.0)",-13.1875,-0.125,-3.125,"(0.0, 0.0, 0.0, 0.0, 0.0, 0.0, 0.0, 0.0, 0.0)",0.42822265625,0.6484375,0.63671875,"(0.0, 0.0, 0.0, 0.0, 0.0, 0.0, 0.0, 0.0, 0.0)"
2022/11/28/22:55:23.253060,296,1669697723,252501964,RU_myo,0.5211543152631646,0.015807350703028415,-0.41593472988856617,-0.7450816115157177,"(0.0, 0.0, 0.0, 0.0, 0.0, 0.0, 0.0, 0.0, 0.0)",-5.8125,0.8125,-2.75,"(0.0, 0.0, 0.0, 0.0, 0.0, 0.0, 0.0, 0.0, 0.0)",0.4345703125,0.6220703125,0.6767578125,"(0.0, 0.0, 0.0, 0.0, 0.0, 0.0, 0.0, 0.0, 0.0)"
2022/11/28/22:55:23.275302,297,1669697723,274849891,RU_myo,0.5210391602037311,0.0161127255820294,-0.41594024561185744,-0.7451525251174127,"(0.0, 0.0, 0.0, 0.0, 0.0, 0.0, 0.0, 0.0, 0.0)",0.0,2.1875,-2.25,"(0.0, 0.0, 0.0, 0.0, 0.0, 0.0, 0.0, 0.0, 0.0)",0.431640625,0.6494140625,0.64501953125,"(0.0, 0.0, 0.0, 0.0, 0.0, 0.0, 0.0, 0.0, 0.0)"
2022/11/28/22:55:23.290303,298,1669697723,289876699,RU_myo,0.5206951941448037,0.016174449237882194,-0.4162021485023346,-0.7452453780926097,"(0.0, 0.0, 0.0, 0.0, 0.0, 0.0, 0.0, 0.0, 0.0)",-1.75,0.3125,-1.8125,"(0.0, 0.0, 0.0, 0.0, 0.0, 0.0, 0.0, 0.0, 0.0)",0.427734375,0.6689453125,0.62451171875,"(0.0, 0.0, 0.0, 0.0, 0.0, 0.0, 0.0, 0.0, 0.0)"
2022/11/28/22:55:23.312625,299,1669697723,312258720,RU_myo,0.5204315408631833,0.015746609304878773,-0.41594241245251484,-0.7455836405751902,"(0.0, 0.0, 0.0, 0.0, 0.0, 0.0, 0.0, 0.0, 0.0)",-3.25,-0.6875,-2.0625,"(0.0, 0.0, 0.0, 0.0, 0.0, 0.0, 0.0, 0.0, 0.0)",0.4267578125,0.6328125,0.65087890625,"(0.0, 0.0, 0.0, 0.0, 0.0, 0.0, 0.0, 0.0, 0.0)"
2022/11/28/22:55:23.335334,300,1669697723,334847927,RU_myo,0.5202668213700641,0.01599130774272135,-0.41620124999090413,-0.7455489468600813,"(0.0, 0.0, 0.0, 0.0, 0.0, 0.0, 0.0, 0.0, 0.0)",3.4375,-0.375,-2.0625,"(0.0, 0.0, 0.0, 0.0, 0.0, 0.0, 0.0, 0.0, 0.0)",0.4189453125,0.62451171875,0.671875,"(0.0, 0.0, 0.0, 0.0, 0.0, 0.0, 0.0, 0.0, 0.0)"
2022/11/28/22:55:23.353345,301,1669697723,352991342,RU_myo,0.5200622323074021,0.016906142277801947,-0.4178929825852344,-0.7447247222878677,"(0.0, 0.0, 0.0, 0.0, 0.0, 0.0, 0.0, 0.0, 0.0)",11.25,-0.0625,-1.3125,"(0.0, 0.0, 0.0, 0.0, 0.0, 0.0, 0.0, 0.0, 0.0)",0.43896484375,0.65771484375,0.6513671875,"(0.0, 0.0, 0.0, 0.0, 0.0, 0.0, 0.0, 0.0, 0.0)"
2022/11/28/22:55:23.372762,302,1669697723,372346639,RU_myo,0.5196533599976237,0.017517091181503172,-0.41973880158605337,-0.7439575763461399,"(0.0, 0.0, 0.0, 0.0, 0.0, 0.0, 0.0, 0.0, 0.0)",9.0625,-1.9375,-1.125,"(0.0, 0.0, 0.0, 0.0, 0.0, 0.0, 0.0, 0.0, 0.0)",0.44287109375,0.67431640625,0.626953125,"(0.0, 0.0, 0.0, 0.0, 0.0, 0.0, 0.0, 0.0, 0.0)"
2022/11/28/22:55:23.395559,303,1669697723,395057678,RU_myo,0.5190383195055659,0.01763900215629216,-0.4212608750267422,-0.7435236133839139,"(0.0, 0.0, 0.0, 0.0, 0.0, 0.0, 0.0, 0.0, 0.0)",5.375,-3.8125,-1.75,"(0.0, 0.0, 0.0, 0.0, 0.0, 0.0, 0.0, 0.0, 0.0)",0.4326171875,0.67724609375,0.619140625,"(0.0, 0.0, 0.0, 0.0, 0.0, 0.0, 0.0, 0.0, 0.0)"
2022/11/28/22:55:23.411424,304,1669697723,411180496,RU_myo,0.5182823663809746,0.01769923295460229,-0.42246238107502426,-0.7433677840932961,"(0.0, 0.0, 0.0, 0.0, 0.0, 0.0, 0.0, 0.0, 0.0)",4.375,-4.0,-2.8125,"(0.0, 0.0, 0.0, 0.0, 0.0, 0.0, 0.0, 0.0, 0.0)",0.42236328125,0.66357421875,0.63037109375,"(0.0, 0.0, 0.0, 0.0, 0.0, 0.0, 0.0, 0.0, 0.0)"
2022/11/28/22:55:23.432799,305,1669697723,432342767,RU_myo,0.5173735780202241,0.01824875543565495,-0.42417675678194616,-0.7430111995774694,"(0.0, 0.0, 0.0, 0.0, 0.0, 0.0, 0.0, 0.0, 0.0)",8.5625,-4.5,-3.875,"(0.0, 0.0, 0.0, 0.0, 0.0, 0.0, 0.0, 0.0, 0.0)",0.42138671875,0.67138671875,0.6337890625,"(0.0, 0.0, 0.0, 0.0, 0.0, 0.0, 0.0, 0.0, 0.0)"
2022/11/28/22:55:23.455571,306,1669697723,455022811,RU_myo,0.5161670989555841,0.018859599571630067,-0.4267518453230985,-0.7423602252095033,"(0.0, 0.0, 0.0, 0.0, 0.0, 0.0, 0.0, 0.0, 0.0)",12.0625,-5.9375,-4.625,"(0.0, 0.0, 0.0, 0.0, 0.0, 0.0, 0.0, 0.0, 0.0)",0.435546875,0.6767578125,0.60302734375,"(0.0, 0.0, 0.0, 0.0, 0.0, 0.0, 0.0, 0.0, 0.0)"
2022/11/28/22:55:23.472162,307,1669697723,471765518,RU_myo,0.5146218276634635,0.019286112137292987,-0.42990941106041713,-0.7415998372792629,"(0.0, 0.0, 0.0, 0.0, 0.0, 0.0, 0.0, 0.0, 0.0)",14.625,-9.0625,-6.0625,"(0.0, 0.0, 0.0, 0.0, 0.0, 0.0, 0.0, 0.0, 0.0)",0.4384765625,0.66845703125,0.59423828125,"(0.0, 0.0, 0.0, 0.0, 0.0, 0.0, 0.0, 0.0, 0.0)"
2022/11/28/22:55:23.492720,308,1669697723,492279291,RU_myo,0.512986188299416,0.019835872837276645,-0.4335816634954255,-0.740579941561584,"(0.0, 0.0, 0.0, 0.0, 0.0, 0.0, 0.0, 0.0, 0.0)",19.125,-10.875,-5.9375,"(0.0, 0.0, 0.0, 0.0, 0.0, 0.0, 0.0, 0.0, 0.0)",0.42822265625,0.64599609375,0.5947265625,"(0.0, 0.0, 0.0, 0.0, 0.0, 0.0, 0.0, 0.0, 0.0)"
2022/11/28/22:55:23.515768,309,1669697723,515070676,RU_myo,0.5116080522506617,0.020325158840309037,-0.43812009055777257,-0.7388469902760988,"(0.0, 0.0, 0.0, 0.0, 0.0, 0.0, 0.0, 0.0, 0.0)",25.9375,-13.75,-3.0,"(0.0, 0.0, 0.0, 0.0, 0.0, 0.0, 0.0, 0.0, 0.0)",0.4208984375,0.62451171875,0.58935546875,"(0.0, 0.0, 0.0, 0.0, 0.0, 0.0, 0.0, 0.0, 0.0)"
2022/11/28/22:55:23.537923,310,1669697723,537421226,RU_myo,0.5101243124631776,0.020446475792673426,-0.4436580075729646,-0.7365614025850236,"(0.0, 0.0, 0.0, 0.0, 0.0, 0.0, 0.0, 0.0, 0.0)",30.0625,-17.875,-1.0,"(0.0, 0.0, 0.0, 0.0, 0.0, 0.0, 0.0, 0.0, 0.0)",0.4326171875,0.6328125,0.5751953125,"(0.0, 0.0, 0.0, 0.0, 0.0, 0.0, 0.0, 0.0, 0.0)"
2022/11/28/22:55:23.552982,311,1669697723,552497148,RU_myo,0.5087128714822752,0.019347568117562233,-0.4497546670609341,-0.7338648550333385,"(0.0, 0.0, 0.0, 0.0, 0.0, 0.0, 0.0, 0.0, 0.0)",29.5625,-24.125,3.6875,"(0.0, 0.0, 0.0, 0.0, 0.0, 0.0, 0.0, 0.0, 0.0)",0.43798828125,0.62890625,0.55322265625,"(0.0, 0.0, 0.0, 0.0, 0.0, 0.0, 0.0, 0.0, 0.0)"
2022/11/28/22:55:23.575241,312,1669697723,574875593,RU_myo,0.5080512873251165,0.017516905269378717,-0.45666022726652106,-0.7300948461056035,"(0.0, 0.0, 0.0, 0.0, 0.0, 0.0, 0.0, 0.0, 0.0)",32.1875,-27.75,12.8125,"(0.0, 0.0, 0.0, 0.0, 0.0, 0.0, 0.0, 0.0, 0.0)",0.431640625,0.658203125,0.5302734375,"(0.0, 0.0, 0.0, 0.0, 0.0, 0.0, 0.0, 0.0, 0.0)"
2022/11/28/22:55:23.598042,313,1669697723,597527265,RU_myo,0.507799362313184,0.015319427877477065,-0.46312278380197597,-0.7262385351159346,"(0.0, 0.0, 0.0, 0.0, 0.0, 0.0, 0.0, 0.0, 0.0)",30.625,-28.6875,17.125,"(0.0, 0.0, 0.0, 0.0, 0.0, 0.0, 0.0, 0.0, 0.0)",0.43701171875,0.68994140625,0.56689453125,"(0.0, 0.0, 0.0, 0.0, 0.0, 0.0, 0.0, 0.0, 0.0)"
2022/11/28/22:55:23.612884,314,1669697723,612361431,RU_myo,0.5079187399301074,0.01129115199315908,-0.46739265926276885,-0.7234881931184202,"(0.0, 0.0, 0.0, 0.0, 0.0, 0.0, 0.0, 0.0, 0.0)",10.3125,-27.625,20.5625,"(0.0, 0.0, 0.0, 0.0, 0.0, 0.0, 0.0, 0.0, 0.0)",0.4658203125,0.7275390625,0.5380859375,"(0.0, 0.0, 0.0, 0.0, 0.0, 0.0, 0.0, 0.0, 0.0)"
2022/11/28/22:55:23.635393,315,1669697723,634913444,RU_myo,0.5082220575360473,0.0020751230882941766,-0.4665364966741378,-0.7239127926546244,"(0.0, 0.0, 0.0, 0.0, 0.0, 0.0, 0.0, 0.0, 0.0)",-38.3125,-30.4375,24.375,"(0.0, 0.0, 0.0, 0.0, 0.0, 0.0, 0.0, 0.0, 0.0)",0.5,0.71630859375,0.45947265625,"(0.0, 0.0, 0.0, 0.0, 0.0, 0.0, 0.0, 0.0, 0.0)"
2022/11/28/22:55:23.657708,316,1669697723,657273530,RU_myo,0.5083435167031152,-0.012633822542627548,-0.46031057785747326,-0.7276959718635181,"(0.0, 0.0, 0.0, 0.0, 0.0, 0.0, 0.0, 0.0, 0.0)",-81.0,-37.9375,25.25,"(0.0, 0.0, 0.0, 0.0, 0.0, 0.0, 0.0, 0.0, 0.0)",0.51220703125,0.5966796875,0.4697265625,"(0.0, 0.0, 0.0, 0.0, 0.0, 0.0, 0.0, 0.0, 0.0)"
2022/11/28/22:55:23.672653,317,1669697723,672273874,RU_myo,0.5081687591336344,-0.02728218055881991,-0.45488611119661027,-0.7308206487948761,"(0.0, 0.0, 0.0, 0.0, 0.0, 0.0, 0.0, 0.0, 0.0)",-68.9375,-44.5625,24.0625,"(0.0, 0.0, 0.0, 0.0, 0.0, 0.0, 0.0, 0.0, 0.0)",0.47509765625,0.45654296875,0.52783203125,"(0.0, 0.0, 0.0, 0.0, 0.0, 0.0, 0.0, 0.0, 0.0)"
2022/11/28/22:55:23.695300,318,1669697723,694887638,RU_myo,0.5089019590825424,-0.03802421689954713,-0.45622956873854703,-0.7289907650853786,"(0.0, 0.0, 0.0, 0.0, 0.0, 0.0, 0.0, 0.0, 0.0)",-11.75,-48.625,29.9375,"(0.0, 0.0, 0.0, 0.0, 0.0, 0.0, 0.0, 0.0, 0.0)",0.4775390625,0.396484375,0.5712890625,"(0.0, 0.0, 0.0, 0.0, 0.0, 0.0, 0.0, 0.0, 0.0)"
2022/11/28/22:55:23.717891,319,1669697723,717421531,RU_myo,0.5116440088198033,-0.04504273869843908,-0.46562473378101865,-0.7206838191750253,"(0.0, 0.0, 0.0, 0.0, 0.0, 0.0, 0.0, 0.0, 0.0)",49.3125,-50.5625,43.25,"(0.0, 0.0, 0.0, 0.0, 0.0, 0.0, 0.0, 0.0, 0.0)",0.498046875,0.34619140625,0.4931640625,"(0.0, 0.0, 0.0, 0.0, 0.0, 0.0, 0.0, 0.0, 0.0)"
2022/11/28/22:55:23.731946,320,1669697723,731804609,RU_myo,0.5163085100455058,-0.05169799125293101,-0.4820669833714865,-0.7059491934255018,"(0.0, 0.0, 0.0, 0.0, 0.0, 0.0, 0.0, 0.0, 0.0)",92.0625,-58.6875,63.25,"(0.0, 0.0, 0.0, 0.0, 0.0, 0.0, 0.0, 0.0, 0.0)",0.6357421875,0.3798828125,0.3935546875,"(0.0, 0.0, 0.0, 0.0, 0.0, 0.0, 0.0, 0.0, 0.0)"
2022/11/28/22:55:23.755454,321,1669697723,755048274,RU_myo,0.5199896676446905,-0.055843960785785414,-0.5009477924915046,-0.6895966261405349,"(0.0, 0.0, 0.0, 0.0, 0.0, 0.0, 0.0, 0.0, 0.0)",110.8125,-65.4375,66.1875,"(0.0, 0.0, 0.0, 0.0, 0.0, 0.0, 0.0, 0.0, 0.0)",0.62646484375,0.37890625,0.3369140625,"(0.0, 0.0, 0.0, 0.0, 0.0, 0.0, 0.0, 0.0, 0.0)"
2022/11/28/22:55:23.777798,322,1669697723,777407169,RU_myo,0.5245181115439567,-0.05712694349606044,-0.5261660041448046,-0.6669082388690731,"(0.0, 0.0, 0.0, 0.0, 0.0, 0.0, 0.0, 0.0, 0.0)",163.125,-72.8125,77.6875,"(0.0, 0.0, 0.0, 0.0, 0.0, 0.0, 0.0, 0.0, 0.0)",0.626953125,0.30224609375,0.2763671875,"(0.0, 0.0, 0.0, 0.0, 0.0, 0.0, 0.0, 0.0, 0.0)"
2022/11/28/22:55:23.792668,323,1669697723,792356252,RU_myo,0.5324055564684532,-0.05517535515848695,-0.5584063322400411,-0.633784168103682,"(0.0, 0.0, 0.0, 0.0, 0.0, 0.0, 0.0, 0.0, 0.0)",232.875,-74.75,108.5,"(0.0, 0.0, 0.0, 0.0, 0.0, 0.0, 0.0, 0.0, 0.0)",0.70166015625,0.26123046875,0.2373046875,"(0.0, 0.0, 0.0, 0.0, 0.0, 0.0, 0.0, 0.0, 0.0)"
2022/11/28/22:55:23.815385,324,1669697723,814970731,RU_myo,0.5424728925650092,-0.05255053560963916,-0.5915444728555433,-0.5941689479208331,"(0.0, 0.0, 0.0, 0.0, 0.0, 0.0, 0.0, 0.0, 0.0)",257.5625,-69.0625,135.0625,"(0.0, 0.0, 0.0, 0.0, 0.0, 0.0, 0.0, 0.0, 0.0)",0.85986328125,0.49365234375,0.1484375,"(0.0, 0.0, 0.0, 0.0, 0.0, 0.0, 0.0, 0.0, 0.0)"
2022/11/28/22:55:23.838080,325,1669697723,837584018,RU_myo,0.5507699755950279,-0.050658142702113614,-0.6200434598924967,-0.5564461289339395,"(0.0, 0.0, 0.0, 0.0, 0.0, 0.0, 0.0, 0.0, 0.0)",232.625,-63.75,129.3125,"(0.0, 0.0, 0.0, 0.0, 0.0, 0.0, 0.0, 0.0, 0.0)",0.80517578125,0.56640625,0.109375,"(0.0, 0.0, 0.0, 0.0, 0.0, 0.0, 0.0, 0.0, 0.0)"
2022/11/28/22:55:23.852088,326,1669697723,851855039,RU_myo,0.5597970339958552,-0.05096276966708887,-0.6437787957466508,-0.5192099180334431,"(0.0, 0.0, 0.0, 0.0, 0.0, 0.0, 0.0, 0.0, 0.0)",208.5625,-52.9375,139.75,"(0.0, 0.0, 0.0, 0.0, 0.0, 0.0, 0.0, 0.0, 0.0)",0.8623046875,0.62255859375,0.0478515625,"(0.0, 0.0, 0.0, 0.0, 0.0, 0.0, 0.0, 0.0, 0.0)"
2022/11/28/22:55:23.875328,327,1669697723,874920368,RU_myo,0.5695166444882346,-0.05432106029305849,-0.6612520979943771,-0.4852274486851854,"(0.0, 0.0, 0.0, 0.0, 0.0, 0.0, 0.0, 0.0, 0.0)",168.625,-39.1875,146.625,"(0.0, 0.0, 0.0, 0.0, 0.0, 0.0, 0.0, 0.0, 0.0)",0.8857421875,0.72998046875,0.06201171875,"(0.0, 0.0, 0.0, 0.0, 0.0, 0.0, 0.0, 0.0, 0.0)"
2022/11/28/22:55:23.897815,328,1669697723,897373676,RU_myo,0.57840547881252,-0.06097151770958189,-0.6734941921173535,-0.4562183131923169,"(0.0, 0.0, 0.0, 0.0, 0.0, 0.0, 0.0, 0.0, 0.0)",124.375,-33.625,142.9375,"(0.0, 0.0, 0.0, 0.0, 0.0, 0.0, 0.0, 0.0, 0.0)",0.93603515625,0.75439453125,0.0771484375,"(0.0, 0.0, 0.0, 0.0, 0.0, 0.0, 0.0, 0.0, 0.0)"
2022/11/28/22:55:23.912123,329,1669697723,911884307,RU_myo,0.5856847869653715,-0.07122698482582207,-0.6811423741698152,-0.4335263695096951,"(0.0, 0.0, 0.0, 0.0, 0.0, 0.0, 0.0, 0.0, 0.0)",75.6875,-31.1875,132.625,"(0.0, 0.0, 0.0, 0.0, 0.0, 0.0, 0.0, 0.0, 0.0)",0.93994140625,0.65185546875,0.0146484375,"(0.0, 0.0, 0.0, 0.0, 0.0, 0.0, 0.0, 0.0, 0.0)"
2022/11/28/22:55:23.935508,330,1669697723,934956550,RU_myo,0.5928680057912632,-0.08080679840103279,-0.686918818733855,-0.41245645286569455,"(0.0, 0.0, 0.0, 0.0, 0.0, 0.0, 0.0, 0.0, 0.0)",66.9375,-23.4375,124.0,"(0.0, 0.0, 0.0, 0.0, 0.0, 0.0, 0.0, 0.0, 0.0)",1.00341796875,0.568359375,0.01025390625,"(0.0, 0.0, 0.0, 0.0, 0.0, 0.0, 0.0, 0.0, 0.0)"
2022/11/28/22:55:23.957821,331,1669697723,957408666,RU_myo,0.6020549248915219,-0.08752501645320787,-0.6925706845847627,-0.3875759096777336,"(0.0, 0.0, 0.0, 0.0, 0.0, 0.0, 0.0, 0.0, 0.0)",93.25,-11.625,129.6875,"(0.0, 0.0, 0.0, 0.0, 0.0, 0.0, 0.0, 0.0, 0.0)",1.0361328125,0.4833984375,0.10595703125,"(0.0, 0.0, 0.0, 0.0, 0.0, 0.0, 0.0, 0.0, 0.0)"
2022/11/28/22:55:23.972064,332,1669697723,971827983,RU_myo,0.6108745247674323,-0.0938069881674037,-0.6968693499644862,-0.3638759033533252,"(0.0, 0.0, 0.0, 0.0, 0.0, 0.0, 0.0, 0.0, 0.0)",86.4375,-6.125,125.5625,"(0.0, 0.0, 0.0, 0.0, 0.0, 0.0, 0.0, 0.0, 0.0)",1.04638671875,0.51953125,0.044921875,"(0.0, 0.0, 0.0, 0.0, 0.0, 0.0, 0.0, 0.0, 0.0)"
2022/11/28/22:55:23.995472,333,1669697723,994925260,RU_myo,0.6162691924709504,-0.10107376277427887,-0.7005583629970851,-0.3452743212645505,"(0.0, 0.0, 0.0, 0.0, 0.0, 0.0, 0.0, 0.0, 0.0)",58.875,-14.5625,105.9375,"(0.0, 0.0, 0.0, 0.0, 0.0, 0.0, 0.0, 0.0, 0.0)",1.0751953125,0.57177734375,-0.1240234375,"(0.0, 0.0, 0.0, 0.0, 0.0, 0.0, 0.0, 0.0, 0.0)"
2022/11/28/22:55:24.018566,334,1669697724,17833232,RU_myo,0.6191367443863008,-0.10510188030690162,-0.7065385403209601,-0.3262308654125373,"(0.0, 0.0, 0.0, 0.0, 0.0, 0.0, 0.0, 0.0, 0.0)",72.5625,-20.1875,98.9375,"(0.0, 0.0, 0.0, 0.0, 0.0, 0.0, 0.0, 0.0, 0.0)",1.03369140625,0.56494140625,-0.15283203125,"(0.0, 0.0, 0.0, 0.0, 0.0, 0.0, 0.0, 0.0, 0.0)"
2022/11/28/22:55:24.032850,335,1669697724,32413244,RU_myo,0.6225911075667339,-0.10711179235169277,-0.711881450706635,-0.3068096753002619,"(0.0, 0.0, 0.0, 0.0, 0.0, 0.0, 0.0, 0.0, 0.0)",83.0625,-17.9375,93.25,"(0.0, 0.0, 0.0, 0.0, 0.0, 0.0, 0.0, 0.0, 0.0)",0.99658203125,0.509765625,-0.0791015625,"(0.0, 0.0, 0.0, 0.0, 0.0, 0.0, 0.0, 0.0, 0.0)"
2022/11/28/22:55:24.055261,336,1669697724,54849386,RU_myo,0.6270029555771351,-0.11083786307097027,-0.7143427034045352,-0.29033904990561976,"(0.0, 0.0, 0.0, 0.0, 0.0, 0.0, 0.0, 0.0, 0.0)",61.75,-8.625,89.75,"(0.0, 0.0, 0.0, 0.0, 0.0, 0.0, 0.0, 0.0, 0.0)",1.0439453125,0.43896484375,-0.03369140625,"(0.0, 0.0, 0.0, 0.0, 0.0, 0.0, 0.0, 0.0, 0.0)"
2022/11/28/22:55:24.077723,337,1669697724,77351331,RU_myo,0.6305837817825966,-0.11626617347036841,-0.7152353212069541,-0.27800127042389927,"(0.0, 0.0, 0.0, 0.0, 0.0, 0.0, 0.0, 0.0, 0.0)",34.4375,-2.75,82.125,"(0.0, 0.0, 0.0, 0.0, 0.0, 0.0, 0.0, 0.0, 0.0)",0.98583984375,0.40576171875,-0.0927734375,"(0.0, 0.0, 0.0, 0.0, 0.0, 0.0, 0.0, 0.0, 0.0)"
2022/11/28/22:55:24.093313,338,1669697724,92632055,RU_myo,0.6321803386467408,-0.1209675063909867,-0.7165890476975656,-0.2687285220179185,"(0.0, 0.0, 0.0, 0.0, 0.0, 0.0, 0.0, 0.0, 0.0)",24.0,-8.6875,63.1875,"(0.0, 0.0, 0.0, 0.0, 0.0, 0.0, 0.0, 0.0, 0.0)",0.9814453125,0.36328125,-0.10498046875,"(0.0, 0.0, 0.0, 0.0, 0.0, 0.0, 0.0, 0.0, 0.0)"
2022/11/28/22:55:24.115541,339,1669697724,115009546,RU_myo,0.6329712348123699,-0.12420176095296238,-0.7183561309171338,-0.2605490503725781,"(0.0, 0.0, 0.0, 0.0, 0.0, 0.0, 0.0, 0.0, 0.0)",24.625,-10.375,52.0625,"(0.0, 0.0, 0.0, 0.0, 0.0, 0.0, 0.0, 0.0, 0.0)",0.9677734375,0.3486328125,-0.11572265625,"(0.0, 0.0, 0.0, 0.0, 0.0, 0.0, 0.0, 0.0, 0.0)"
2022/11/28/22:55:24.137906,340,1669697724,137496948,RU_myo,0.6335309868955127,-0.1289034146746939,-0.7180017851482478,-0.25786786316315424,"(0.0, 0.0, 0.0, 0.0, 0.0, 0.0, 0.0, 0.0, 0.0)",-5.9375,-2.6875,40.8125,"(0.0, 0.0, 0.0, 0.0, 0.0, 0.0, 0.0, 0.0, 0.0)",0.95263671875,0.3603515625,-0.10107421875,"(0.0, 0.0, 0.0, 0.0, 0.0, 0.0, 0.0, 0.0, 0.0)"
2022/11/28/22:55:24.152696,341,1669697724,152301788,RU_myo,0.6347405076114834,-0.1339058340095764,-0.7162802497431123,-0.25713093832376727,"(0.0, 0.0, 0.0, 0.0, 0.0, 0.0, 0.0, 0.0, 0.0)",-17.1875,6.75,31.4375,"(0.0, 0.0, 0.0, 0.0, 0.0, 0.0, 0.0, 0.0, 0.0)",0.97216796875,0.27197265625,-0.11083984375,"(0.0, 0.0, 0.0, 0.0, 0.0, 0.0, 0.0, 0.0, 0.0)"
2022/11/28/22:55:24.175244,342,1669697724,174842119,RU_myo,0.6360995217703929,-0.13793752822885125,-0.7145896373908808,-0.2563440790093696,"(0.0, 0.0, 0.0, 0.0, 0.0, 0.0, 0.0, 0.0, 0.0)",-13.4375,7.0,21.6875,"(0.0, 0.0, 0.0, 0.0, 0.0, 0.0, 0.0, 0.0, 0.0)",0.97265625,0.1748046875,-0.0849609375,"(0.0, 0.0, 0.0, 0.0, 0.0, 0.0, 0.0, 0.0, 0.0)"
2022/11/28/22:55:24.198269,343,1669697724,197767257,RU_myo,0.6373770740105182,-0.14086625364514757,-0.7134253201291725,-0.2548165550123445,"(0.0, 0.0, 0.0, 0.0, 0.0, 0.0, 0.0, 0.0, 0.0)",-5.8125,5.375,15.125,"(0.0, 0.0, 0.0, 0.0, 0.0, 0.0, 0.0, 0.0, 0.0)",0.97705078125,0.10595703125,-0.08154296875,"(0.0, 0.0, 0.0, 0.0, 0.0, 0.0, 0.0, 0.0, 0.0)"
2022/11/28/22:55:24.212765,344,1669697724,212324142,RU_myo,0.6385263392828553,-0.14293908302432107,-0.7126813289816384,-0.2528593599358506,"(0.0, 0.0, 0.0, 0.0, 0.0, 0.0, 0.0, 0.0, 0.0)",-0.625,5.1875,12.8125,"(0.0, 0.0, 0.0, 0.0, 0.0, 0.0, 0.0, 0.0, 0.0)",0.98681640625,0.1064453125,-0.0908203125,"(0.0, 0.0, 0.0, 0.0, 0.0, 0.0, 0.0, 0.0, 0.0)"
2022/11/28/22:55:24.235396,345,1669697724,234942197,RU_myo,0.6396552550175678,-0.14386139657217628,-0.7121047576612561,-0.2511013090784613,"(0.0, 0.0, 0.0, 0.0, 0.0, 0.0, 0.0, 0.0, 0.0)",3.4375,6.125,9.875,"(0.0, 0.0, 0.0, 0.0, 0.0, 0.0, 0.0, 0.0, 0.0)",1.00390625,0.140625,-0.08740234375,"(0.0, 0.0, 0.0, 0.0, 0.0, 0.0, 0.0, 0.0, 0.0)"
2022/11/28/22:55:24.257968,346,1669697724,257462263,RU_myo,0.6407324410814769,-0.14434484884336948,-0.7114705720791366,-0.2498722245939766,"(0.0, 0.0, 0.0, 0.0, 0.0, 0.0, 0.0, 0.0, 0.0)",3.0,6.0,6.0,"(0.0, 0.0, 0.0, 0.0, 0.0, 0.0, 0.0, 0.0, 0.0)",1.00341796875,0.140625,-0.07080078125,"(0.0, 0.0, 0.0, 0.0, 0.0, 0.0, 0.0, 0.0, 0.0)"
2022/11/28/22:55:24.274067,347,1669697724,273730516,RU_myo,0.6412831591508087,-0.14513860782912566,-0.7109838698912888,-0.24938450445324112,"(0.0, 0.0, 0.0, 0.0, 0.0, 0.0, 0.0, 0.0, 0.0)",-1.75,4.875,3.125,"(0.0, 0.0, 0.0, 0.0, 0.0, 0.0, 0.0, 0.0, 0.0)",0.9775390625,0.12060546875,-0.08544921875,"(0.0, 0.0, 0.0, 0.0, 0.0, 0.0, 0.0, 0.0, 0.0)"
2022/11/28/22:55:24.295846,348,1669697724,295249223,RU_myo,0.6412365925413824,-0.14715604650840214,-0.7106947347755431,-0.24914598998228848,"(0.0, 0.0, 0.0, 0.0, 0.0, 0.0, 0.0, 0.0, 0.0)",-7.8125,0.0625,3.375,"(0.0, 0.0, 0.0, 0.0, 0.0, 0.0, 0.0, 0.0, 0.0)",0.96484375,0.078125,-0.09033203125,"(0.0, 0.0, 0.0, 0.0, 0.0, 0.0, 0.0, 0.0, 0.0)"
