time,.header.seq,.header.stamp.secs,.header.stamp.nsecs,.header.frame_id,.orientation.x,.orientation.y,.orientation.z,.orientation.w,.orientation_covariance,.angular_velocity.x,.angular_velocity.y,.angular_velocity.z,.angular_velocity_covariance,.linear_acceleration.x,.linear_acceleration.y,.linear_acceleration.z,.linear_acceleration_covariance
2022/11/28/23:03:57.831483,5330,1669698237,830676555,RU_myo,0.6046201590916049,0.08545005276885191,-0.6001035134452514,-0.516728676243643,"(0.0, 0.0, 0.0, 0.0, 0.0, 0.0, 0.0, 0.0, 0.0)",62.1875,70.0625,36.25,"(0.0, 0.0, 0.0, 0.0, 0.0, 0.0, 0.0, 0.0, 0.0)",0.52734375,0.55712890625,-0.298828125,"(0.0, 0.0, 0.0, 0.0, 0.0, 0.0, 0.0, 0.0, 0.0)"
2022/11/28/23:03:57.849228,5331,1669698237,848795890,RU_myo,0.6075289437328087,0.09228287752903423,-0.6028903863966932,-0.5088375330420359,"(0.0, 0.0, 0.0, 0.0, 0.0, 0.0, 0.0, 0.0, 0.0)",25.8125,47.75,26.0625,"(0.0, 0.0, 0.0, 0.0, 0.0, 0.0, 0.0, 0.0, 0.0)",0.49462890625,0.83056640625,-0.32666015625,"(0.0, 0.0, 0.0, 0.0, 0.0, 0.0, 0.0, 0.0, 0.0)"
2022/11/28/23:03:57.871554,5332,1669698237,869957923,RU_myo,0.6085191930057456,0.09582498826670216,-0.603026040812113,-0.5068348423991687,"(0.0, 0.0, 0.0, 0.0, 0.0, 0.0, 0.0, 0.0, 0.0)",-7.125,31.125,15.9375,"(0.0, 0.0, 0.0, 0.0, 0.0, 0.0, 0.0, 0.0, 0.0)",0.44921875,0.91796875,-0.19580078125,"(0.0, 0.0, 0.0, 0.0, 0.0, 0.0, 0.0, 0.0, 0.0)"
2022/11/28/23:03:57.891111,5333,1669698237,890673875,RU_myo,0.6102720354589407,0.09307579298678713,-0.5991639736074028,-0.5098112123400872,"(0.0, 0.0, 0.0, 0.0, 0.0, 0.0, 0.0, 0.0, 0.0)",-46.6875,20.125,9.25,"(0.0, 0.0, 0.0, 0.0, 0.0, 0.0, 0.0, 0.0, 0.0)",0.51708984375,0.75146484375,-0.01416015625,"(0.0, 0.0, 0.0, 0.0, 0.0, 0.0, 0.0, 0.0, 0.0)"
2022/11/28/23:03:57.908510,5334,1669698237,907160758,RU_myo,0.6110855221330731,0.08624289280603599,-0.5966811890104797,-0.5129407439079451,"(0.0, 0.0, 0.0, 0.0, 0.0, 0.0, 0.0, 0.0, 0.0)",-52.375,0.6875,7.375,"(0.0, 0.0, 0.0, 0.0, 0.0, 0.0, 0.0, 0.0, 0.0)",0.64306640625,0.58642578125,0.02978515625,"(0.0, 0.0, 0.0, 0.0, 0.0, 0.0, 0.0, 0.0, 0.0)"
2022/11/28/23:03:57.930402,5335,1669698237,930016040,RU_myo,0.6111434326826797,0.08227517699553102,-0.5983871181485061,-0.5115343163201377,"(0.0, 0.0, 0.0, 0.0, 0.0, 0.0, 0.0, 0.0, 0.0)",-11.625,-7.25,12.375,"(0.0, 0.0, 0.0, 0.0, 0.0, 0.0, 0.0, 0.0, 0.0)",0.72705078125,0.64306640625,0.09326171875,"(0.0, 0.0, 0.0, 0.0, 0.0, 0.0, 0.0, 0.0, 0.0)"
2022/11/28/23:03:57.951896,5336,1669698237,951022863,RU_myo,0.6123524337247173,0.0822125713373063,-0.6013663440137186,-0.5065808033404917,"(0.0, 0.0, 0.0, 0.0, 0.0, 0.0, 0.0, 0.0, 0.0)",25.0625,-2.1875,16.9375,"(0.0, 0.0, 0.0, 0.0, 0.0, 0.0, 0.0, 0.0, 0.0)",0.76611328125,0.71435546875,0.2646484375,"(0.0, 0.0, 0.0, 0.0, 0.0, 0.0, 0.0, 0.0, 0.0)"
2022/11/28/23:03:57.967609,5337,1669698237,967347383,RU_myo,0.6136921741179655,0.0858741809034289,-0.6030723393793752,-0.5023059764287277,"(0.0, 0.0, 0.0, 0.0, 0.0, 0.0, 0.0, 0.0, 0.0)",34.0,8.375,8.6875,"(0.0, 0.0, 0.0, 0.0, 0.0, 0.0, 0.0, 0.0, 0.0)",0.7177734375,0.81884765625,0.34375,"(0.0, 0.0, 0.0, 0.0, 0.0, 0.0, 0.0, 0.0, 0.0)"
2022/11/28/23:03:57.990224,5338,1669698237,989844083,RU_myo,0.6145140095419404,0.09137142156180818,-0.6035885022209225,-0.4997046281406303,"(0.0, 0.0, 0.0, 0.0, 0.0, 0.0, 0.0, 0.0, 0.0)",31.0625,13.6875,1.0625,"(0.0, 0.0, 0.0, 0.0, 0.0, 0.0, 0.0, 0.0, 0.0)",0.6474609375,0.89013671875,0.35009765625,"(0.0, 0.0, 0.0, 0.0, 0.0, 0.0, 0.0, 0.0, 0.0)"
2022/11/28/23:03:58.011527,5339,1669698238,10752201,RU_myo,0.6149881930888793,0.09533659761858172,-0.6032084470322939,-0.4988386762718748,"(0.0, 0.0, 0.0, 0.0, 0.0, 0.0, 0.0, 0.0, 0.0)",18.125,11.5625,-7.125,"(0.0, 0.0, 0.0, 0.0, 0.0, 0.0, 0.0, 0.0, 0.0)",0.6298828125,0.7578125,0.31494140625,"(0.0, 0.0, 0.0, 0.0, 0.0, 0.0, 0.0, 0.0, 0.0)"
2022/11/28/23:03:58.027522,5340,1669698238,27153015,RU_myo,0.6151678318185191,0.09704502952589,-0.6023505637679298,-0.49932414248509815,"(0.0, 0.0, 0.0, 0.0, 0.0, 0.0, 0.0, 0.0, 0.0)",3.6875,7.3125,-9.75,"(0.0, 0.0, 0.0, 0.0, 0.0, 0.0, 0.0, 0.0, 0.0)",0.65576171875,0.68408203125,0.2822265625,"(0.0, 0.0, 0.0, 0.0, 0.0, 0.0, 0.0, 0.0, 0.0)"
2022/11/28/23:03:58.050424,5341,1669698238,50067424,RU_myo,0.6154086781862309,0.09808209321087703,-0.6014318273179727,-0.4999318142441156,"(0.0, 0.0, 0.0, 0.0, 0.0, 0.0, 0.0, 0.0, 0.0)",0.4375,5.875,-7.5,"(0.0, 0.0, 0.0, 0.0, 0.0, 0.0, 0.0, 0.0, 0.0)",0.6396484375,0.67626953125,0.2724609375,"(0.0, 0.0, 0.0, 0.0, 0.0, 0.0, 0.0, 0.0, 0.0)"
2022/11/28/23:03:58.071198,5342,1669698238,70813417,RU_myo,0.6155158670951456,0.09948347678384604,-0.6001355995187473,-0.5010793523898013,"(0.0, 0.0, 0.0, 0.0, 0.0, 0.0, 0.0, 0.0, 0.0)",-0.9375,6.6875,-9.125,"(0.0, 0.0, 0.0, 0.0, 0.0, 0.0, 0.0, 0.0, 0.0)",0.60693359375,0.6982421875,0.2861328125,"(0.0, 0.0, 0.0, 0.0, 0.0, 0.0, 0.0, 0.0, 0.0)"
2022/11/28/23:03:58.087990,5343,1669698238,87642669,RU_myo,0.6150977073853858,0.10070561789897664,-0.5989237748137319,-0.5027956850010724,"(0.0, 0.0, 0.0, 0.0, 0.0, 0.0, 0.0, 0.0, 0.0)",-4.125,3.9375,-10.0,"(0.0, 0.0, 0.0, 0.0, 0.0, 0.0, 0.0, 0.0, 0.0)",0.62548828125,0.76123046875,0.2900390625,"(0.0, 0.0, 0.0, 0.0, 0.0, 0.0, 0.0, 0.0, 0.0)"
2022/11/28/23:03:58.110225,5344,1669698238,109667539,RU_myo,0.6145429865468394,0.10137609500986197,-0.5976367985168984,-0.5048663804464649,"(0.0, 0.0, 0.0, 0.0, 0.0, 0.0, 0.0, 0.0, 0.0)",-7.6875,1.6875,-8.9375,"(0.0, 0.0, 0.0, 0.0, 0.0, 0.0, 0.0, 0.0, 0.0)",0.6181640625,0.77783203125,0.2939453125,"(0.0, 0.0, 0.0, 0.0, 0.0, 0.0, 0.0, 0.0, 0.0)"
2022/11/28/23:03:58.131184,5345,1669698238,130665302,RU_myo,0.6154606506236321,0.1008271514111702,-0.5947092998489361,-0.5073094930566868,"(0.0, 0.0, 0.0, 0.0, 0.0, 0.0, 0.0, 0.0, 0.0)",-14.875,7.0,-6.375,"(0.0, 0.0, 0.0, 0.0, 0.0, 0.0, 0.0, 0.0, 0.0)",0.638671875,0.72900390625,0.357421875,"(0.0, 0.0, 0.0, 0.0, 0.0, 0.0, 0.0, 0.0, 0.0)"
2022/11/28/23:03:58.147361,5346,1669698238,146920919,RU_myo,0.6175456775148228,0.1016832475528459,-0.5900802144903446,-0.5100031311834216,"(0.0, 0.0, 0.0, 0.0, 0.0, 0.0, 0.0, 0.0, 0.0)",-13.375,18.0625,-9.5,"(0.0, 0.0, 0.0, 0.0, 0.0, 0.0, 0.0, 0.0, 0.0)",0.62109375,0.712890625,0.42138671875,"(0.0, 0.0, 0.0, 0.0, 0.0, 0.0, 0.0, 0.0, 0.0)"
2022/11/28/23:03:58.170121,5347,1669698238,169844627,RU_myo,0.6190855781118493,0.10461526973121459,-0.5857600604495137,-0.5125171644883366,"(0.0, 0.0, 0.0, 0.0, 0.0, 0.0, 0.0, 0.0, 0.0)",-8.25,24.375,-16.1875,"(0.0, 0.0, 0.0, 0.0, 0.0, 0.0, 0.0, 0.0, 0.0)",0.6181640625,0.744140625,0.3662109375,"(0.0, 0.0, 0.0, 0.0, 0.0, 0.0, 0.0, 0.0, 0.0)"
2022/11/28/23:03:58.192652,5348,1669698238,192368030,RU_myo,0.6218337283803027,0.10803353938291478,-0.5803293177699174,-0.5146546915687782,"(0.0, 0.0, 0.0, 0.0, 0.0, 0.0, 0.0, 0.0, 0.0)",-7.0,33.4375,-16.8125,"(0.0, 0.0, 0.0, 0.0, 0.0, 0.0, 0.0, 0.0, 0.0)",0.6748046875,0.7470703125,0.41796875,"(0.0, 0.0, 0.0, 0.0, 0.0, 0.0, 0.0, 0.0, 0.0)"
2022/11/28/23:03:58.206903,5349,1669698238,206613302,RU_myo,0.6259674004915434,0.11199787245534147,-0.5729286260154172,-0.5170822754450425,"(0.0, 0.0, 0.0, 0.0, 0.0, 0.0, 0.0, 0.0, 0.0)",-11.5,46.5625,-18.375,"(0.0, 0.0, 0.0, 0.0, 0.0, 0.0, 0.0, 0.0, 0.0)",0.66796875,0.72314453125,0.4482421875,"(0.0, 0.0, 0.0, 0.0, 0.0, 0.0, 0.0, 0.0, 0.0)"
2022/11/28/23:03:58.230216,5350,1669698238,229796886,RU_myo,0.6309858950246533,0.11627279261191377,-0.5629922514710197,-0.5209387322533775,"(0.0, 0.0, 0.0, 0.0, 0.0, 0.0, 0.0, 0.0, 0.0)",-25.125,59.0,-21.875,"(0.0, 0.0, 0.0, 0.0, 0.0, 0.0, 0.0, 0.0, 0.0)",0.65966796875,0.763671875,0.4501953125,"(0.0, 0.0, 0.0, 0.0, 0.0, 0.0, 0.0, 0.0, 0.0)"
2022/11/28/23:03:58.253500,5351,1669698238,252744674,RU_myo,0.6364056415855679,0.12029879347512748,-0.5503471439701799,-0.5269099361089679,"(0.0, 0.0, 0.0, 0.0, 0.0, 0.0, 0.0, 0.0, 0.0)",-43.625,69.1875,-26.375,"(0.0, 0.0, 0.0, 0.0, 0.0, 0.0, 0.0, 0.0, 0.0)",0.62109375,0.8076171875,0.4453125,"(0.0, 0.0, 0.0, 0.0, 0.0, 0.0, 0.0, 0.0, 0.0)"
2022/11/28/23:03:58.266913,5352,1669698238,266523599,RU_myo,0.6421501409143037,0.12243638272731615,-0.5352777051438498,-0.5349114946272177,"(0.0, 0.0, 0.0, 0.0, 0.0, 0.0, 0.0, 0.0, 0.0)",-65.625,72.875,-28.8125,"(0.0, 0.0, 0.0, 0.0, 0.0, 0.0, 0.0, 0.0, 0.0)",0.60400390625,0.79443359375,0.462890625,"(0.0, 0.0, 0.0, 0.0, 0.0, 0.0, 0.0, 0.0, 0.0)"
2022/11/28/23:03:58.290024,5353,1669698238,289657592,RU_myo,0.648133585788787,0.12225365593134385,-0.5185556968510721,-0.5441294770983177,"(0.0, 0.0, 0.0, 0.0, 0.0, 0.0, 0.0, 0.0, 0.0)",-82.8125,72.5625,-28.9375,"(0.0, 0.0, 0.0, 0.0, 0.0, 0.0, 0.0, 0.0, 0.0)",0.58154296875,0.7275390625,0.46923828125,"(0.0, 0.0, 0.0, 0.0, 0.0, 0.0, 0.0, 0.0, 0.0)"
2022/11/28/23:03:58.312770,5354,1669698238,312326669,RU_myo,0.6536283177053521,0.12103323877203412,-0.5022604749647346,-0.5530419447873934,"(0.0, 0.0, 0.0, 0.0, 0.0, 0.0, 0.0, 0.0, 0.0)",-84.875,69.25,-28.1875,"(0.0, 0.0, 0.0, 0.0, 0.0, 0.0, 0.0, 0.0, 0.0)",0.564453125,0.65283203125,0.4423828125,"(0.0, 0.0, 0.0, 0.0, 0.0, 0.0, 0.0, 0.0, 0.0)"
2022/11/28/23:03:58.334091,5355,1669698238,333441019,RU_myo,0.6585053999687718,0.12011665836857381,-0.48827909905924316,-0.5599340568461871,"(0.0, 0.0, 0.0, 0.0, 0.0, 0.0, 0.0, 0.0, 0.0)",-71.6875,62.0625,-21.6875,"(0.0, 0.0, 0.0, 0.0, 0.0, 0.0, 0.0, 0.0, 0.0)",0.55029296875,0.64599609375,0.43896484375,"(0.0, 0.0, 0.0, 0.0, 0.0, 0.0, 0.0, 0.0, 0.0)"
2022/11/28/23:03:58.350180,5356,1669698238,349694252,RU_myo,0.6628960237095052,0.12042112648732656,-0.4776562270095376,-0.5638369825088306,"(0.0, 0.0, 0.0, 0.0, 0.0, 0.0, 0.0, 0.0, 0.0)",-48.0625,54.125,-12.5625,"(0.0, 0.0, 0.0, 0.0, 0.0, 0.0, 0.0, 0.0, 0.0)",0.51220703125,0.6142578125,0.42578125,"(0.0, 0.0, 0.0, 0.0, 0.0, 0.0, 0.0, 0.0, 0.0)"
2022/11/28/23:03:58.373166,5357,1669698238,372567653,RU_myo,0.6666409058745204,0.12250030196760321,-0.47083573960044406,-0.5647099122093996,"(0.0, 0.0, 0.0, 0.0, 0.0, 0.0, 0.0, 0.0, 0.0)",-21.0625,46.625,-5.6875,"(0.0, 0.0, 0.0, 0.0, 0.0, 0.0, 0.0, 0.0, 0.0)",0.48974609375,0.5751953125,0.3994140625,"(0.0, 0.0, 0.0, 0.0, 0.0, 0.0, 0.0, 0.0, 0.0)"
2022/11/28/23:03:58.386914,5358,1669698238,386652231,RU_myo,0.6694801812736577,0.1268283176849905,-0.46758024147483745,-0.5630981996928404,"(0.0, 0.0, 0.0, 0.0, 0.0, 0.0, 0.0, 0.0, 0.0)",5.25,40.25,-2.75,"(0.0, 0.0, 0.0, 0.0, 0.0, 0.0, 0.0, 0.0, 0.0)",0.47705078125,0.57373046875,0.3740234375,"(0.0, 0.0, 0.0, 0.0, 0.0, 0.0, 0.0, 0.0, 0.0)"
2022/11/28/23:03:58.410210,5359,1669698238,409857749,RU_myo,0.6715076195838348,0.1323850233482401,-0.4668570970911427,-0.5599965833195495,"(0.0, 0.0, 0.0, 0.0, 0.0, 0.0, 0.0, 0.0, 0.0)",22.75,32.625,0.375,"(0.0, 0.0, 0.0, 0.0, 0.0, 0.0, 0.0, 0.0, 0.0)",0.474609375,0.6103515625,0.39892578125,"(0.0, 0.0, 0.0, 0.0, 0.0, 0.0, 0.0, 0.0, 0.0)"
2022/11/28/23:03:58.432835,5360,1669698238,432401895,RU_myo,0.6730912323382439,0.13775543266117304,-0.46740412198460934,-0.5563317539683617,"(0.0, 0.0, 0.0, 0.0, 0.0, 0.0, 0.0, 0.0, 0.0)",28.3125,25.3125,3.25,"(0.0, 0.0, 0.0, 0.0, 0.0, 0.0, 0.0, 0.0, 0.0)",0.484375,0.66357421875,0.4365234375,"(0.0, 0.0, 0.0, 0.0, 0.0, 0.0, 0.0, 0.0, 0.0)"
2022/11/28/23:03:58.447322,5361,1669698238,446962356,RU_myo,0.6743782503527658,0.14154069712807166,-0.46832331568076496,-0.5530402141774288,"(0.0, 0.0, 0.0, 0.0, 0.0, 0.0, 0.0, 0.0, 0.0)",22.3125,17.25,6.625,"(0.0, 0.0, 0.0, 0.0, 0.0, 0.0, 0.0, 0.0, 0.0)",0.47412109375,0.681640625,0.44677734375,"(0.0, 0.0, 0.0, 0.0, 0.0, 0.0, 0.0, 0.0, 0.0)"
2022/11/28/23:03:58.470442,5362,1669698238,469993114,RU_myo,0.6751207056221843,0.142458342547887,-0.4691237449970263,-0.5512173485646819,"(0.0, 0.0, 0.0, 0.0, 0.0, 0.0, 0.0, 0.0, 0.0)",5.4375,6.3125,7.6875,"(0.0, 0.0, 0.0, 0.0, 0.0, 0.0, 0.0, 0.0, 0.0)",0.46923828125,0.70849609375,0.4150390625,"(0.0, 0.0, 0.0, 0.0, 0.0, 0.0, 0.0, 0.0, 0.0)"
2022/11/28/23:03:58.492771,5363,1669698238,492373228,RU_myo,0.675662070511088,0.1408087079195194,-0.4694233951491217,-0.5507225711130574,"(0.0, 0.0, 0.0, 0.0, 0.0, 0.0, 0.0, 0.0, 0.0)",-9.0625,-1.625,8.3125,"(0.0, 0.0, 0.0, 0.0, 0.0, 0.0, 0.0, 0.0, 0.0)",0.4814453125,0.708984375,0.4365234375,"(0.0, 0.0, 0.0, 0.0, 0.0, 0.0, 0.0, 0.0, 0.0)"
2022/11/28/23:03:58.514262,5364,1669698238,513538837,RU_myo,0.6761763172339086,0.13756669546396155,-0.46903285476510403,-0.5512432978839844,"(0.0, 0.0, 0.0, 0.0, 0.0, 0.0, 0.0, 0.0, 0.0)",-17.125,-5.8125,6.8125,"(0.0, 0.0, 0.0, 0.0, 0.0, 0.0, 0.0, 0.0, 0.0)",0.4921875,0.6826171875,0.474609375,"(0.0, 0.0, 0.0, 0.0, 0.0, 0.0, 0.0, 0.0, 0.0)"
2022/11/28/23:03:58.530179,5365,1669698238,529862642,RU_myo,0.676499905649066,0.13457978094155454,-0.4689845971677574,-0.5516245170747256,"(0.0, 0.0, 0.0, 0.0, 0.0, 0.0, 0.0, 0.0, 0.0)",-12.8125,-7.6875,6.0625,"(0.0, 0.0, 0.0, 0.0, 0.0, 0.0, 0.0, 0.0, 0.0)",0.49560546875,0.67333984375,0.50732421875,"(0.0, 0.0, 0.0, 0.0, 0.0, 0.0, 0.0, 0.0, 0.0)"
2022/11/28/23:03:58.553131,5366,1669698238,552356004,RU_myo,0.6767011612174331,0.13232507599164742,-0.47003478330796894,-0.551028960356362,"(0.0, 0.0, 0.0, 0.0, 0.0, 0.0, 0.0, 0.0, 0.0)",-3.4375,-9.625,8.125,"(0.0, 0.0, 0.0, 0.0, 0.0, 0.0, 0.0, 0.0, 0.0)",0.5048828125,0.67578125,0.51611328125,"(0.0, 0.0, 0.0, 0.0, 0.0, 0.0, 0.0, 0.0, 0.0)"
2022/11/28/23:03:58.567233,5367,1669698238,566892147,RU_myo,0.67693555289998,0.13049212984403186,-0.471859053238639,-0.5496172260268974,"(0.0, 0.0, 0.0, 0.0, 0.0, 0.0, 0.0, 0.0, 0.0)",3.125,-10.0625,10.3125,"(0.0, 0.0, 0.0, 0.0, 0.0, 0.0, 0.0, 0.0, 0.0)",0.52880859375,0.67626953125,0.529296875,"(0.0, 0.0, 0.0, 0.0, 0.0, 0.0, 0.0, 0.0, 0.0)"
2022/11/28/23:03:58.590259,5368,1669698238,589931488,RU_myo,0.6773735629264762,0.12988384771197886,-0.47351451623568236,-0.5477948934281064,"(0.0, 0.0, 0.0, 0.0, 0.0, 0.0, 0.0, 0.0, 0.0)",9.0,-5.8125,10.0,"(0.0, 0.0, 0.0, 0.0, 0.0, 0.0, 0.0, 0.0, 0.0)",0.5283203125,0.6982421875,0.546875,"(0.0, 0.0, 0.0, 0.0, 0.0, 0.0, 0.0, 0.0, 0.0)"
2022/11/28/23:03:58.613091,5369,1669698238,612367153,RU_myo,0.6776757709791439,0.13037156145289122,-0.47534350215127197,-0.54571728977074,"(0.0, 0.0, 0.0, 0.0, 0.0, 0.0, 0.0, 0.0, 0.0)",12.6875,-4.125,10.6875,"(0.0, 0.0, 0.0, 0.0, 0.0, 0.0, 0.0, 0.0, 0.0)",0.50146484375,0.740234375,0.54052734375,"(0.0, 0.0, 0.0, 0.0, 0.0, 0.0, 0.0, 0.0, 0.0)"
2022/11/28/23:03:58.626966,5370,1669698238,626653909,RU_myo,0.6774987020431085,0.1311661901523099,-0.4771177796280161,-0.5441962547221941,"(0.0, 0.0, 0.0, 0.0, 0.0, 0.0, 0.0, 0.0, 0.0)",11.5,-4.75,7.125,"(0.0, 0.0, 0.0, 0.0, 0.0, 0.0, 0.0, 0.0, 0.0)",0.50244140625,0.77099609375,0.53857421875,"(0.0, 0.0, 0.0, 0.0, 0.0, 0.0, 0.0, 0.0, 0.0)"
2022/11/28/23:03:58.650397,5371,1669698238,649969339,RU_myo,0.6773551222821823,0.13097892344724843,-0.478018139999464,-0.5436296696852945,"(0.0, 0.0, 0.0, 0.0, 0.0, 0.0, 0.0, 0.0, 0.0)",2.875,-5.0625,4.6875,"(0.0, 0.0, 0.0, 0.0, 0.0, 0.0, 0.0, 0.0, 0.0)",0.509765625,0.75244140625,0.5322265625,"(0.0, 0.0, 0.0, 0.0, 0.0, 0.0, 0.0, 0.0, 0.0)"
2022/11/28/23:03:58.672720,5372,1669698238,672287464,RU_myo,0.6775537393523094,0.12970017981476062,-0.47772390936947356,-0.5439472952984219,"(0.0, 0.0, 0.0, 0.0, 0.0, 0.0, 0.0, 0.0, 0.0)",-6.0,-3.6875,3.0,"(0.0, 0.0, 0.0, 0.0, 0.0, 0.0, 0.0, 0.0, 0.0)",0.5205078125,0.734375,0.55615234375,"(0.0, 0.0, 0.0, 0.0, 0.0, 0.0, 0.0, 0.0, 0.0)"
2022/11/28/23:03:58.693904,5373,1669698238,693217515,RU_myo,0.6779217080938736,0.12860187620003527,-0.47687064962072884,-0.5444980244805481,"(0.0, 0.0, 0.0, 0.0, 0.0, 0.0, 0.0, 0.0, 0.0)",-6.8125,-0.875,1.125,"(0.0, 0.0, 0.0, 0.0, 0.0, 0.0, 0.0, 0.0, 0.0)",0.5234375,0.70703125,0.5654296875,"(0.0, 0.0, 0.0, 0.0, 0.0, 0.0, 0.0, 0.0, 0.0)"
2022/11/28/23:03:58.709971,5374,1669698238,709666013,RU_myo,0.6783599486462634,0.12793255824748678,-0.4757186827199007,-0.5451172126470918,"(0.0, 0.0, 0.0, 0.0, 0.0, 0.0, 0.0, 0.0, 0.0)",-5.625,1.0,0.5,"(0.0, 0.0, 0.0, 0.0, 0.0, 0.0, 0.0, 0.0, 0.0)",0.505859375,0.7080078125,0.578125,"(0.0, 0.0, 0.0, 0.0, 0.0, 0.0, 0.0, 0.0, 0.0)"
2022/11/28/23:03:58.732860,5375,1669698238,732510805,RU_myo,0.6788330558606555,0.12780762623379002,-0.47467044375367,-0.5454712300149863,"(0.0, 0.0, 0.0, 0.0, 0.0, 0.0, 0.0, 0.0, 0.0)",-2.0,2.0,0.3125,"(0.0, 0.0, 0.0, 0.0, 0.0, 0.0, 0.0, 0.0, 0.0)",0.49365234375,0.69091796875,0.57861328125,"(0.0, 0.0, 0.0, 0.0, 0.0, 0.0, 0.0, 0.0, 0.0)"
2022/11/28/23:03:58.753824,5376,1669698238,753314256,RU_myo,0.6794454931223768,0.12786905390687922,-0.47363429991283185,-0.5455949751186603,"(0.0, 0.0, 0.0, 0.0, 0.0, 0.0, 0.0, 0.0, 0.0)",-0.1875,3.8125,0.0625,"(0.0, 0.0, 0.0, 0.0, 0.0, 0.0, 0.0, 0.0, 0.0)",0.50537109375,0.681640625,0.5830078125,"(0.0, 0.0, 0.0, 0.0, 0.0, 0.0, 0.0, 0.0, 0.0)"
2022/11/28/23:03:58.769987,5377,1669698238,769609689,RU_myo,0.6802612006313618,0.12872775882741516,-0.4724900811204461,-0.5453686700440752,"(0.0, 0.0, 0.0, 0.0, 0.0, 0.0, 0.0, 0.0, 0.0)",2.875,7.25,-0.375,"(0.0, 0.0, 0.0, 0.0, 0.0, 0.0, 0.0, 0.0, 0.0)",0.51025390625,0.6904296875,0.5888671875,"(0.0, 0.0, 0.0, 0.0, 0.0, 0.0, 0.0, 0.0, 0.0)"
2022/11/28/23:03:58.792770,5378,1669698238,792432069,RU_myo,0.6811504076532184,0.1299434783058873,-0.47125110192567204,-0.545042396088104,"(0.0, 0.0, 0.0, 0.0, 0.0, 0.0, 0.0, 0.0, 0.0)",4.1875,9.1875,-0.125,"(0.0, 0.0, 0.0, 0.0, 0.0, 0.0, 0.0, 0.0, 0.0)",0.50830078125,0.7001953125,0.59228515625,"(0.0, 0.0, 0.0, 0.0, 0.0, 0.0, 0.0, 0.0, 0.0)"
2022/11/28/23:03:58.814375,5379,1669698238,813560009,RU_myo,0.6824305419546928,0.13110283553516502,-0.4693579167902323,-0.5447969785786234,"(0.0, 0.0, 0.0, 0.0, 0.0, 0.0, 0.0, 0.0, 0.0)",1.8125,11.6875,0.25,"(0.0, 0.0, 0.0, 0.0, 0.0, 0.0, 0.0, 0.0, 0.0)",0.498046875,0.69677734375,0.6044921875,"(0.0, 0.0, 0.0, 0.0, 0.0, 0.0, 0.0, 0.0, 0.0)"
2022/11/28/23:03:58.830260,5380,1669698238,829732179,RU_myo,0.6839651639095581,0.1322031541163754,-0.46680042598432087,-0.5448039490502156,"(0.0, 0.0, 0.0, 0.0, 0.0, 0.0, 0.0, 0.0, 0.0)",-0.875,14.5625,0.625,"(0.0, 0.0, 0.0, 0.0, 0.0, 0.0, 0.0, 0.0, 0.0)",0.48388671875,0.69287109375,0.61083984375,"(0.0, 0.0, 0.0, 0.0, 0.0, 0.0, 0.0, 0.0, 0.0)"
2022/11/28/23:03:58.852642,5381,1669698238,852233171,RU_myo,0.6857785729533478,0.13299319245864585,-0.46349256701741925,-0.5451561243876204,"(0.0, 0.0, 0.0, 0.0, 0.0, 0.0, 0.0, 0.0, 0.0)",-5.8125,16.625,0.1875,"(0.0, 0.0, 0.0, 0.0, 0.0, 0.0, 0.0, 0.0, 0.0)",0.47412109375,0.6826171875,0.611328125,"(0.0, 0.0, 0.0, 0.0, 0.0, 0.0, 0.0, 0.0, 0.0)"
2022/11/28/23:03:58.873505,5382,1669698238,873067378,RU_myo,0.6879200026554958,0.1332993776771895,-0.4593457492667254,-0.545892689535157,"(0.0, 0.0, 0.0, 0.0, 0.0, 0.0, 0.0, 0.0, 0.0)",-10.1875,18.0,0.3125,"(0.0, 0.0, 0.0, 0.0, 0.0, 0.0, 0.0, 0.0, 0.0)",0.486328125,0.705078125,0.66162109375,"(0.0, 0.0, 0.0, 0.0, 0.0, 0.0, 0.0, 0.0, 0.0)"
2022/11/28/23:03:58.890000,5383,1669698238,889627933,RU_myo,0.6904684079368452,0.13463920338625301,-0.4540258540300708,-0.5467962933533276,"(0.0, 0.0, 0.0, 0.0, 0.0, 0.0, 0.0, 0.0, 0.0)",-10.3125,26.3125,-1.9375,"(0.0, 0.0, 0.0, 0.0, 0.0, 0.0, 0.0, 0.0, 0.0)",0.48876953125,0.73046875,0.70458984375,"(0.0, 0.0, 0.0, 0.0, 0.0, 0.0, 0.0, 0.0, 0.0)"
2022/11/28/23:03:58.912911,5384,1669698238,912405014,RU_myo,0.6937956310334585,0.13568291438263205,-0.44708832561978396,-0.5480417850839645,"(0.0, 0.0, 0.0, 0.0, 0.0, 0.0, 0.0, 0.0, 0.0)",-18.25,34.125,-1.75,"(0.0, 0.0, 0.0, 0.0, 0.0, 0.0, 0.0, 0.0, 0.0)",0.47900390625,0.712890625,0.69970703125,"(0.0, 0.0, 0.0, 0.0, 0.0, 0.0, 0.0, 0.0, 0.0)"
2022/11/28/23:03:58.934045,5385,1669698238,933154106,RU_myo,0.6978835394763077,0.13549951527351783,-0.4382982068374467,-0.5499937532115627,"(0.0, 0.0, 0.0, 0.0, 0.0, 0.0, 0.0, 0.0, 0.0)",-30.375,39.5,-1.5625,"(0.0, 0.0, 0.0, 0.0, 0.0, 0.0, 0.0, 0.0, 0.0)",0.470703125,0.67431640625,0.71044921875,"(0.0, 0.0, 0.0, 0.0, 0.0, 0.0, 0.0, 0.0, 0.0)"
2022/11/28/23:03:58.950648,5386,1669698238,949813842,RU_myo,0.7027586463826063,0.1356811247966418,-0.4285887801718483,-0.5513914896144229,"(0.0, 0.0, 0.0, 0.0, 0.0, 0.0, 0.0, 0.0, 0.0)",-29.5,46.875,-0.375,"(0.0, 0.0, 0.0, 0.0, 0.0, 0.0, 0.0, 0.0, 0.0)",0.4892578125,0.6552734375,0.7529296875,"(0.0, 0.0, 0.0, 0.0, 0.0, 0.0, 0.0, 0.0, 0.0)"
2022/11/28/23:03:58.972762,5387,1669698238,972206830,RU_myo,0.7083146110698015,0.13726838089581936,-0.41882420173726653,-0.5513928648345184,"(0.0, 0.0, 0.0, 0.0, 0.0, 0.0, 0.0, 0.0, 0.0)",-19.75,55.1875,2.5,"(0.0, 0.0, 0.0, 0.0, 0.0, 0.0, 0.0, 0.0, 0.0)",0.505859375,0.64208984375,0.7939453125,"(0.0, 0.0, 0.0, 0.0, 0.0, 0.0, 0.0, 0.0, 0.0)"
2022/11/28/23:03:58.994160,5388,1669698238,993524074,RU_myo,0.714896132486022,0.13995191938789792,-0.40856439092132085,-0.5499201019123247,"(0.0, 0.0, 0.0, 0.0, 0.0, 0.0, 0.0, 0.0, 0.0)",-14.0625,64.6875,8.0625,"(0.0, 0.0, 0.0, 0.0, 0.0, 0.0, 0.0, 0.0, 0.0)",0.50390625,0.630859375,0.81005859375,"(0.0, 0.0, 0.0, 0.0, 0.0, 0.0, 0.0, 0.0, 0.0)"
2022/11/28/23:03:59.009571,5389,1669698239,9233951,RU_myo,0.7222111516711548,0.14336803813703564,-0.39757318025740745,-0.5475328523317781,"(0.0, 0.0, 0.0, 0.0, 0.0, 0.0, 0.0, 0.0, 0.0)",-12.125,72.625,12.5,"(0.0, 0.0, 0.0, 0.0, 0.0, 0.0, 0.0, 0.0, 0.0)",0.474609375,0.6171875,0.8115234375,"(0.0, 0.0, 0.0, 0.0, 0.0, 0.0, 0.0, 0.0, 0.0)"
2022/11/28/23:03:59.033191,5390,1669698239,32758235,RU_myo,0.7299216986660599,0.14807174855454983,-0.38653684402141963,-0.5439470004609019,"(0.0, 0.0, 0.0, 0.0, 0.0, 0.0, 0.0, 0.0, 0.0)",-5.0,78.5625,16.4375,"(0.0, 0.0, 0.0, 0.0, 0.0, 0.0, 0.0, 0.0, 0.0)",0.431640625,0.58056640625,0.78466796875,"(0.0, 0.0, 0.0, 0.0, 0.0, 0.0, 0.0, 0.0, 0.0)"
2022/11/28/23:03:59.053756,5391,1669698239,53093433,RU_myo,0.7379781278611294,0.15344280981249517,-0.3760996794210801,-0.5388808941266985,"(0.0, 0.0, 0.0, 0.0, 0.0, 0.0, 0.0, 0.0, 0.0)",1.625,83.0,20.5625,"(0.0, 0.0, 0.0, 0.0, 0.0, 0.0, 0.0, 0.0, 0.0)",0.4482421875,0.5546875,0.7568359375,"(0.0, 0.0, 0.0, 0.0, 0.0, 0.0, 0.0, 0.0, 0.0)"
2022/11/28/23:03:59.070368,5392,1669698239,69991350,RU_myo,0.7466618086040379,0.15948886666249906,-0.3656707999139043,-0.5323009591135301,"(0.0, 0.0, 0.0, 0.0, 0.0, 0.0, 0.0, 0.0, 0.0)",6.75,91.375,24.5,"(0.0, 0.0, 0.0, 0.0, 0.0, 0.0, 0.0, 0.0, 0.0)",0.48681640625,0.5234375,0.72216796875,"(0.0, 0.0, 0.0, 0.0, 0.0, 0.0, 0.0, 0.0, 0.0)"
2022/11/28/23:03:59.091735,5393,1669698239,91533899,RU_myo,0.7553923049920792,0.1674851716950764,-0.35584495298188606,-0.524123603988929,"(0.0, 0.0, 0.0, 0.0, 0.0, 0.0, 0.0, 0.0, 0.0)",21.6875,95.1875,28.5,"(0.0, 0.0, 0.0, 0.0, 0.0, 0.0, 0.0, 0.0, 0.0)",0.447265625,0.4912109375,0.73828125,"(0.0, 0.0, 0.0, 0.0, 0.0, 0.0, 0.0, 0.0, 0.0)"
2022/11/28/23:03:59.114399,5394,1669698239,113531827,RU_myo,0.7640988165193906,0.17822258520941134,-0.3477171465541152,-0.513305459455873,"(0.0, 0.0, 0.0, 0.0, 0.0, 0.0, 0.0, 0.0, 0.0)",43.75,99.25,35.6875,"(0.0, 0.0, 0.0, 0.0, 0.0, 0.0, 0.0, 0.0, 0.0)",0.412109375,0.4404296875,0.67333984375,"(0.0, 0.0, 0.0, 0.0, 0.0, 0.0, 0.0, 0.0, 0.0)"
2022/11/28/23:03:59.129266,5395,1669698239,129013538,RU_myo,0.772219154367458,0.19238339982344513,-0.3405772116163781,-0.5006729152131093,"(0.0, 0.0, 0.0, 0.0, 0.0, 0.0, 0.0, 0.0, 0.0)",60.125,103.375,41.5,"(0.0, 0.0, 0.0, 0.0, 0.0, 0.0, 0.0, 0.0, 0.0)",0.41943359375,0.42822265625,0.6552734375,"(0.0, 0.0, 0.0, 0.0, 0.0, 0.0, 0.0, 0.0, 0.0)"
2022/11/28/23:03:59.153149,5396,1669698239,152565240,RU_myo,0.7800756481097961,0.20934664525597377,-0.33507670042428456,-0.4851593245305351,"(0.0, 0.0, 0.0, 0.0, 0.0, 0.0, 0.0, 0.0, 0.0)",81.9375,107.5,49.4375,"(0.0, 0.0, 0.0, 0.0, 0.0, 0.0, 0.0, 0.0, 0.0)",0.47265625,0.4970703125,0.61572265625,"(0.0, 0.0, 0.0, 0.0, 0.0, 0.0, 0.0, 0.0, 0.0)"
2022/11/28/23:03:59.175283,5397,1669698239,174948930,RU_myo,0.7871733690031695,0.22686852854034123,-0.33056764879593437,-0.4686296911844875,"(0.0, 0.0, 0.0, 0.0, 0.0, 0.0, 0.0, 0.0, 0.0)",89.625,104.6875,52.125,"(0.0, 0.0, 0.0, 0.0, 0.0, 0.0, 0.0, 0.0, 0.0)",0.44873046875,0.5419921875,0.62109375,"(0.0, 0.0, 0.0, 0.0, 0.0, 0.0, 0.0, 0.0, 0.0)"
2022/11/28/23:03:59.189351,5398,1669698239,188952922,RU_myo,0.793184937116318,0.24415080788497667,-0.3281386857974086,-0.4511906929714369,"(0.0, 0.0, 0.0, 0.0, 0.0, 0.0, 0.0, 0.0, 0.0)",94.25,99.4375,51.75,"(0.0, 0.0, 0.0, 0.0, 0.0, 0.0, 0.0, 0.0, 0.0)",0.4208984375,0.60888671875,0.5478515625,"(0.0, 0.0, 0.0, 0.0, 0.0, 0.0, 0.0, 0.0, 0.0)"
2022/11/28/23:03:59.212671,5399,1669698239,212293148,RU_myo,0.7986808565534693,0.26032662233095505,-0.32630858686548314,-0.4334300926546569,"(0.0, 0.0, 0.0, 0.0, 0.0, 0.0, 0.0, 0.0, 0.0)",86.625,95.1875,55.0,"(0.0, 0.0, 0.0, 0.0, 0.0, 0.0, 0.0, 0.0, 0.0)",0.4384765625,0.69482421875,0.49462890625,"(0.0, 0.0, 0.0, 0.0, 0.0, 0.0, 0.0, 0.0, 0.0)"
2022/11/28/23:03:59.235342,5400,1669698239,235050439,RU_myo,0.8032922410150831,0.2741118041485251,-0.32385598593009884,-0.41797319857695386,"(0.0, 0.0, 0.0, 0.0, 0.0, 0.0, 0.0, 0.0, 0.0)",66.3125,84.6875,50.4375,"(0.0, 0.0, 0.0, 0.0, 0.0, 0.0, 0.0, 0.0, 0.0)",0.37060546875,0.76806640625,0.439453125,"(0.0, 0.0, 0.0, 0.0, 0.0, 0.0, 0.0, 0.0, 0.0)"
2022/11/28/23:03:59.249431,5401,1669698239,248988866,RU_myo,0.8080919552800934,0.2831983891616037,-0.32061231428144493,-0.4049614896739743,"(0.0, 0.0, 0.0, 0.0, 0.0, 0.0, 0.0, 0.0, 0.0)",36.625,73.625,47.0625,"(0.0, 0.0, 0.0, 0.0, 0.0, 0.0, 0.0, 0.0, 0.0)",0.36083984375,0.783203125,0.41357421875,"(0.0, 0.0, 0.0, 0.0, 0.0, 0.0, 0.0, 0.0, 0.0)"
2022/11/28/23:03:59.272684,5402,1669698239,272312879,RU_myo,0.8126674674696679,0.28777522411712236,-0.31835324899149736,-0.39421848835047574,"(0.0, 0.0, 0.0, 0.0, 0.0, 0.0, 0.0, 0.0, 0.0)",10.6875,60.1875,41.3125,"(0.0, 0.0, 0.0, 0.0, 0.0, 0.0, 0.0, 0.0, 0.0)",0.4775390625,0.82470703125,0.3818359375,"(0.0, 0.0, 0.0, 0.0, 0.0, 0.0, 0.0, 0.0, 0.0)"
2022/11/28/23:03:59.295194,5403,1669698239,294835567,RU_myo,0.8170114426686496,0.2893048138539817,-0.3158549391760243,-0.38604492565958526,"(0.0, 0.0, 0.0, 0.0, 0.0, 0.0, 0.0, 0.0, 0.0)",-5.6875,48.6875,33.9375,"(0.0, 0.0, 0.0, 0.0, 0.0, 0.0, 0.0, 0.0, 0.0)",0.46484375,0.7998046875,0.41650390625,"(0.0, 0.0, 0.0, 0.0, 0.0, 0.0, 0.0, 0.0, 0.0)"
2022/11/28/23:03:59.309248,5404,1669698239,308972835,RU_myo,0.8201740743665192,0.290948787952463,-0.3152402957362012,-0.37853249064006195,"(0.0, 0.0, 0.0, 0.0, 0.0, 0.0, 0.0, 0.0, 0.0)",2.0,34.75,32.375,"(0.0, 0.0, 0.0, 0.0, 0.0, 0.0, 0.0, 0.0, 0.0)",0.44140625,0.783203125,0.44091796875,"(0.0, 0.0, 0.0, 0.0, 0.0, 0.0, 0.0, 0.0, 0.0)"
2022/11/28/23:03:59.332699,5405,1669698239,332413673,RU_myo,0.8223377636944765,0.29291166985599293,-0.315617054558312,-0.37195326445143173,"(0.0, 0.0, 0.0, 0.0, 0.0, 0.0, 0.0, 0.0, 0.0)",9.1875,23.9375,29.5,"(0.0, 0.0, 0.0, 0.0, 0.0, 0.0, 0.0, 0.0, 0.0)",0.38720703125,0.7734375,0.4990234375,"(0.0, 0.0, 0.0, 0.0, 0.0, 0.0, 0.0, 0.0, 0.0)"
2022/11/28/23:03:59.355205,5406,1669698239,354867696,RU_myo,0.8237101635907317,0.2946312678512384,-0.3164218961136979,-0.36683942817193754,"(0.0, 0.0, 0.0, 0.0, 0.0, 0.0, 0.0, 0.0, 0.0)",10.9375,15.6875,22.75,"(0.0, 0.0, 0.0, 0.0, 0.0, 0.0, 0.0, 0.0, 0.0)",0.38525390625,0.79052734375,0.57421875,"(0.0, 0.0, 0.0, 0.0, 0.0, 0.0, 0.0, 0.0, 0.0)"
2022/11/28/23:03:59.369170,5407,1669698239,368891954,RU_myo,0.8244520873158538,0.2963218007046543,-0.3179279628981554,-0.3624830431276915,"(0.0, 0.0, 0.0, 0.0, 0.0, 0.0, 0.0, 0.0, 0.0)",15.0625,8.4375,18.9375,"(0.0, 0.0, 0.0, 0.0, 0.0, 0.0, 0.0, 0.0, 0.0)",0.38623046875,0.7734375,0.61962890625,"(0.0, 0.0, 0.0, 0.0, 0.0, 0.0, 0.0, 0.0, 0.0)"
2022/11/28/23:03:59.393078,5408,1669698239,392670392,RU_myo,0.8249956326307567,0.29735730725582943,-0.31963469172799236,-0.35887950875703556,"(0.0, 0.0, 0.0, 0.0, 0.0, 0.0, 0.0, 0.0, 0.0)",13.8125,4.375,15.6875,"(0.0, 0.0, 0.0, 0.0, 0.0, 0.0, 0.0, 0.0, 0.0)",0.39453125,0.74853515625,0.6396484375,"(0.0, 0.0, 0.0, 0.0, 0.0, 0.0, 0.0, 0.0, 0.0)"
2022/11/28/23:03:59.415525,5409,1669698239,414893627,RU_myo,0.8256786446535672,0.2977887424057329,-0.320737823599534,-0.3559548976655532,"(0.0, 0.0, 0.0, 0.0, 0.0, 0.0, 0.0, 0.0, 0.0)",9.0625,4.5625,12.75,"(0.0, 0.0, 0.0, 0.0, 0.0, 0.0, 0.0, 0.0, 0.0)",0.3896484375,0.73681640625,0.64013671875,"(0.0, 0.0, 0.0, 0.0, 0.0, 0.0, 0.0, 0.0, 0.0)"
2022/11/28/23:03:59.436226,5410,1669698239,435718297,RU_myo,0.8263176575908272,0.2979821838054674,-0.32099309804034276,-0.35407510205971254,"(0.0, 0.0, 0.0, 0.0, 0.0, 0.0, 0.0, 0.0, 0.0)",5.0625,4.625,8.1875,"(0.0, 0.0, 0.0, 0.0, 0.0, 0.0, 0.0, 0.0, 0.0)",0.3681640625,0.74169921875,0.65869140625,"(0.0, 0.0, 0.0, 0.0, 0.0, 0.0, 0.0, 0.0, 0.0)"
2022/11/28/23:03:59.452871,5411,1669698239,452523469,RU_myo,0.826541255883331,0.29858512950681254,-0.32074097619752656,-0.3532728392447733,"(0.0, 0.0, 0.0, 0.0, 0.0, 0.0, 0.0, 0.0, 0.0)",3.5625,4.4375,2.5625,"(0.0, 0.0, 0.0, 0.0, 0.0, 0.0, 0.0, 0.0, 0.0)",0.349609375,0.77685546875,0.671875,"(0.0, 0.0, 0.0, 0.0, 0.0, 0.0, 0.0, 0.0, 0.0)"
2022/11/28/23:03:59.475134,5412,1669698239,474759101,RU_myo,0.8268798095446674,0.29847510656775844,-0.3200214690664126,-0.3532260616988994,"(0.0, 0.0, 0.0, 0.0, 0.0, 0.0, 0.0, 0.0, 0.0)",-2.625,3.3125,0.5,"(0.0, 0.0, 0.0, 0.0, 0.0, 0.0, 0.0, 0.0, 0.0)",0.31982421875,0.75341796875,0.6396484375,"(0.0, 0.0, 0.0, 0.0, 0.0, 0.0, 0.0, 0.0, 0.0)"
2022/11/28/23:03:59.489360,5413,1669698239,488932132,RU_myo,0.8275363070234925,0.29663862311064854,-0.3191611852357163,-0.3540131716135312,"(0.0, 0.0, 0.0, 0.0, 0.0, 0.0, 0.0, 0.0, 0.0)",-12.625,0.0625,-0.8125,"(0.0, 0.0, 0.0, 0.0, 0.0, 0.0, 0.0, 0.0, 0.0)",0.3251953125,0.72314453125,0.63330078125,"(0.0, 0.0, 0.0, 0.0, 0.0, 0.0, 0.0, 0.0, 0.0)"
2022/11/28/23:03:59.512599,5414,1669698239,512277603,RU_myo,0.8280349892908507,0.29475018157787986,-0.3187989642537309,-0.35475006322854374,"(0.0, 0.0, 0.0, 0.0, 0.0, 0.0, 0.0, 0.0, 0.0)",-9.5,-2.0,-1.6875,"(0.0, 0.0, 0.0, 0.0, 0.0, 0.0, 0.0, 0.0, 0.0)",0.345703125,0.69189453125,0.6513671875,"(0.0, 0.0, 0.0, 0.0, 0.0, 0.0, 0.0, 0.0, 0.0)"
2022/11/28/23:03:59.535179,5415,1669698239,534744739,RU_myo,0.8285635772261413,0.2930948285701606,-0.31848580080780886,-0.3551684313722958,"(0.0, 0.0, 0.0, 0.0, 0.0, 0.0, 0.0, 0.0, 0.0)",-5.625,-0.9375,-1.5625,"(0.0, 0.0, 0.0, 0.0, 0.0, 0.0, 0.0, 0.0, 0.0)",0.3603515625,0.66259765625,0.6748046875,"(0.0, 0.0, 0.0, 0.0, 0.0, 0.0, 0.0, 0.0, 0.0)"
2022/11/28/23:03:59.549597,5416,1669698239,549335241,RU_myo,0.8288255991681877,0.2923076658381656,-0.3188588946207093,-0.3548709060728951,"(0.0, 0.0, 0.0, 0.0, 0.0, 0.0, 0.0, 0.0, 0.0)",-0.0625,-1.3125,1.3125,"(0.0, 0.0, 0.0, 0.0, 0.0, 0.0, 0.0, 0.0, 0.0)",0.35888671875,0.6748046875,0.6533203125,"(0.0, 0.0, 0.0, 0.0, 0.0, 0.0, 0.0, 0.0, 0.0)"
2022/11/28/23:03:59.572406,5417,1669698239,572074174,RU_myo,0.8287914807134679,0.2920514938665545,-0.31933404721208214,-0.35473422828681606,"(0.0, 0.0, 0.0, 0.0, 0.0, 0.0, 0.0, 0.0, 0.0)",1.3125,-2.6875,1.375,"(0.0, 0.0, 0.0, 0.0, 0.0, 0.0, 0.0, 0.0, 0.0)",0.328125,0.70947265625,0.646484375,"(0.0, 0.0, 0.0, 0.0, 0.0, 0.0, 0.0, 0.0, 0.0)"
2022/11/28/23:03:59.595720,5418,1669698239,595285654,RU_myo,0.8286806248698481,0.2916281966287202,-0.3194604397561159,-0.355227313599655,"(0.0, 0.0, 0.0, 0.0, 0.0, 0.0, 0.0, 0.0, 0.0)",-2.0625,-2.8125,-1.3125,"(0.0, 0.0, 0.0, 0.0, 0.0, 0.0, 0.0, 0.0, 0.0)",0.32568359375,0.72509765625,0.6484375,"(0.0, 0.0, 0.0, 0.0, 0.0, 0.0, 0.0, 0.0, 0.0)"
2022/11/28/23:03:59.609239,5419,1669698239,608964204,RU_myo,0.8288432587998161,0.29040031114650405,-0.3191473785172488,-0.3561340511853407,"(0.0, 0.0, 0.0, 0.0, 0.0, 0.0, 0.0, 0.0, 0.0)",-6.375,-2.5,-3.5,"(0.0, 0.0, 0.0, 0.0, 0.0, 0.0, 0.0, 0.0, 0.0)",0.34423828125,0.7060546875,0.66748046875,"(0.0, 0.0, 0.0, 0.0, 0.0, 0.0, 0.0, 0.0, 0.0)"
2022/11/28/23:03:59.632639,5420,1669698239,632320404,RU_myo,0.8289850247339442,0.2893085714356424,-0.319215997596711,-0.3566307980798436,"(0.0, 0.0, 0.0, 0.0, 0.0, 0.0, 0.0, 0.0, 0.0)",-2.0625,-2.875,-2.375,"(0.0, 0.0, 0.0, 0.0, 0.0, 0.0, 0.0, 0.0, 0.0)",0.35693359375,0.67822265625,0.68505859375,"(0.0, 0.0, 0.0, 0.0, 0.0, 0.0, 0.0, 0.0, 0.0)"
2022/11/28/23:03:59.655379,5421,1669698239,654818773,RU_myo,0.828946438470673,0.2887670716740118,-0.31959086605054443,-0.35682356816873234,"(0.0, 0.0, 0.0, 0.0, 0.0, 0.0, 0.0, 0.0, 0.0)",0.0,-2.9375,-0.875,"(0.0, 0.0, 0.0, 0.0, 0.0, 0.0, 0.0, 0.0, 0.0)",0.35107421875,0.70458984375,0.66796875,"(0.0, 0.0, 0.0, 0.0, 0.0, 0.0, 0.0, 0.0, 0.0)"
2022/11/28/23:03:59.676407,5422,1669698239,675927877,RU_myo,0.8288081596343141,0.2882731377828165,-0.3195846177071411,-0.35754902416509404,"(0.0, 0.0, 0.0, 0.0, 0.0, 0.0, 0.0, 0.0, 0.0)",-2.6875,-2.8125,-3.0,"(0.0, 0.0, 0.0, 0.0, 0.0, 0.0, 0.0, 0.0, 0.0)",0.333984375,0.728515625,0.66259765625,"(0.0, 0.0, 0.0, 0.0, 0.0, 0.0, 0.0, 0.0, 0.0)"
2022/11/28/23:03:59.692984,5423,1669698239,692480325,RU_myo,0.82884698324359,0.2871879413919354,-0.3194164712654618,-0.3584813559606454,"(0.0, 0.0, 0.0, 0.0, 0.0, 0.0, 0.0, 0.0, 0.0)",-5.1875,-2.625,-4.0,"(0.0, 0.0, 0.0, 0.0, 0.0, 0.0, 0.0, 0.0, 0.0)",0.34912109375,0.69873046875,0.66845703125,"(0.0, 0.0, 0.0, 0.0, 0.0, 0.0, 0.0, 0.0, 0.0)"
2022/11/28/23:03:59.715688,5424,1669698239,715180397,RU_myo,0.8290604390831181,0.2858955382953195,-0.3192825706282699,-0.3591394849123954,"(0.0, 0.0, 0.0, 0.0, 0.0, 0.0, 0.0, 0.0, 0.0)",-3.875,-2.875,-2.4375,"(0.0, 0.0, 0.0, 0.0, 0.0, 0.0, 0.0, 0.0, 0.0)",0.3466796875,0.6689453125,0.68310546875,"(0.0, 0.0, 0.0, 0.0, 0.0, 0.0, 0.0, 0.0, 0.0)"
2022/11/28/23:03:59.736215,5425,1669698239,735677957,RU_myo,0.8288039095323171,0.2859523025376615,-0.3197660860181022,-0.3592561905521186,"(0.0, 0.0, 0.0, 0.0, 0.0, 0.0, 0.0, 0.0, 0.0)",4.1875,-3.4375,-1.375,"(0.0, 0.0, 0.0, 0.0, 0.0, 0.0, 0.0, 0.0, 0.0)",0.3330078125,0.68603515625,0.6787109375,"(0.0, 0.0, 0.0, 0.0, 0.0, 0.0, 0.0, 0.0, 0.0)"
2022/11/28/23:03:59.753410,5426,1669698239,752812623,RU_myo,0.8282542703291046,0.2861963355617665,-0.3205594272489652,-0.3596222668223349,"(0.0, 0.0, 0.0, 0.0, 0.0, 0.0, 0.0, 0.0, 0.0)",4.0625,-4.3125,-3.1875,"(0.0, 0.0, 0.0, 0.0, 0.0, 0.0, 0.0, 0.0, 0.0)",0.3505859375,0.7109375,0.65185546875,"(0.0, 0.0, 0.0, 0.0, 0.0, 0.0, 0.0, 0.0, 0.0)"
2022/11/28/23:03:59.775058,5427,1669698239,774747848,RU_myo,0.8275927606358995,0.2854673162839517,-0.3215398379696082,-0.3608472896879886,"(0.0, 0.0, 0.0, 0.0, 0.0, 0.0, 0.0, 0.0, 0.0)",-4.4375,-6.5,-6.25,"(0.0, 0.0, 0.0, 0.0, 0.0, 0.0, 0.0, 0.0, 0.0)",0.37451171875,0.7158203125,0.60400390625,"(0.0, 0.0, 0.0, 0.0, 0.0, 0.0, 0.0, 0.0, 0.0)"
2022/11/28/23:03:59.795967,5428,1669698239,795558452,RU_myo,0.8266857577305966,0.28406641438852603,-0.3227028648199693,-0.3629873155067822,"(0.0, 0.0, 0.0, 0.0, 0.0, 0.0, 0.0, 0.0, 0.0)",-8.625,-9.4375,-11.0625,"(0.0, 0.0, 0.0, 0.0, 0.0, 0.0, 0.0, 0.0, 0.0)",0.4072265625,0.7197265625,0.6044921875,"(0.0, 0.0, 0.0, 0.0, 0.0, 0.0, 0.0, 0.0, 0.0)"
2022/11/28/23:03:59.812567,5429,1669698239,812218904,RU_myo,0.8243388457251974,0.283873831739071,-0.32549970859266086,-0.36596592025531494,"(0.0, 0.0, 0.0, 0.0, 0.0, 0.0, 0.0, 0.0, 0.0)",-1.5,-16.5,-18.75,"(0.0, 0.0, 0.0, 0.0, 0.0, 0.0, 0.0, 0.0, 0.0)",0.43701171875,0.74560546875,0.56689453125,"(0.0, 0.0, 0.0, 0.0, 0.0, 0.0, 0.0, 0.0, 0.0)"
2022/11/28/23:03:59.835817,5430,1669698239,835149526,RU_myo,0.8198722153654067,0.285212749378586,-0.33019494417679224,-0.3707216434251083,"(0.0, 0.0, 0.0, 0.0, 0.0, 0.0, 0.0, 0.0, 0.0)",0.75,-26.6875,-29.625,"(0.0, 0.0, 0.0, 0.0, 0.0, 0.0, 0.0, 0.0, 0.0)",0.4443359375,0.8359375,0.45556640625,"(0.0, 0.0, 0.0, 0.0, 0.0, 0.0, 0.0, 0.0, 0.0)"
2022/11/28/23:03:59.856121,5431,1669698239,855701684,RU_myo,0.8136743283694312,0.2860769317431193,-0.3361266616405714,-0.3783027145175707,"(0.0, 0.0, 0.0, 0.0, 0.0, 0.0, 0.0, 0.0, 0.0)",-9.125,-40.75,-40.3125,"(0.0, 0.0, 0.0, 0.0, 0.0, 0.0, 0.0, 0.0, 0.0)",0.42431640625,0.95458984375,0.37841796875,"(0.0, 0.0, 0.0, 0.0, 0.0, 0.0, 0.0, 0.0, 0.0)"
2022/11/28/23:03:59.872559,5432,1669698239,872259140,RU_myo,0.8065168015582777,0.2836297545664686,-0.34222337720124585,-0.3898306955920024,"(0.0, 0.0, 0.0, 0.0, 0.0, 0.0, 0.0, 0.0, 0.0)",-32.4375,-56.8125,-53.1875,"(0.0, 0.0, 0.0, 0.0, 0.0, 0.0, 0.0, 0.0, 0.0)",0.419921875,0.998046875,0.37060546875,"(0.0, 0.0, 0.0, 0.0, 0.0, 0.0, 0.0, 0.0, 0.0)"
2022/11/28/23:03:59.895602,5433,1669698239,895211458,RU_myo,0.7987687517434803,0.276795009487024,-0.3477180086102703,-0.40551842183721887,"(0.0, 0.0, 0.0, 0.0, 0.0, 0.0, 0.0, 0.0, 0.0)",-57.625,-71.375,-68.5,"(0.0, 0.0, 0.0, 0.0, 0.0, 0.0, 0.0, 0.0, 0.0)",0.447265625,0.9501953125,0.39599609375,"(0.0, 0.0, 0.0, 0.0, 0.0, 0.0, 0.0, 0.0, 0.0)"
2022/11/28/23:03:59.916832,5434,1669698239,915838003,RU_myo,0.7896126429783881,0.2673342642224117,-0.3536991007234876,-0.42419477998761673,"(0.0, 0.0, 0.0, 0.0, 0.0, 0.0, 0.0, 0.0, 0.0)",-67.8125,-86.375,-82.4375,"(0.0, 0.0, 0.0, 0.0, 0.0, 0.0, 0.0, 0.0, 0.0)",0.482421875,0.89111328125,0.43603515625,"(0.0, 0.0, 0.0, 0.0, 0.0, 0.0, 0.0, 0.0, 0.0)"
2022/11/28/23:03:59.932932,5435,1669698239,932517528,RU_myo,0.7789037370102216,0.25684718480832325,-0.35896347287494035,-0.4455151145237527,"(0.0, 0.0, 0.0, 0.0, 0.0, 0.0, 0.0, 0.0, 0.0)",-64.6875,-101.375,-94.6875,"(0.0, 0.0, 0.0, 0.0, 0.0, 0.0, 0.0, 0.0, 0.0)",0.4794921875,0.810546875,0.43896484375,"(0.0, 0.0, 0.0, 0.0, 0.0, 0.0, 0.0, 0.0, 0.0)"
2022/11/28/23:03:59.955371,5436,1669698239,954966545,RU_myo,0.7657388206394751,0.24596902974470622,-0.36620699217574126,-0.46801253600059733,"(0.0, 0.0, 0.0, 0.0, 0.0, 0.0, 0.0, 0.0, 0.0)",-59.875,-117.5625,-102.5,"(0.0, 0.0, 0.0, 0.0, 0.0, 0.0, 0.0, 0.0, 0.0)",0.48388671875,0.78466796875,0.4287109375,"(0.0, 0.0, 0.0, 0.0, 0.0, 0.0, 0.0, 0.0, 0.0)"
2022/11/28/23:03:59.975715,5437,1669698239,975351572,RU_myo,0.7503434370071473,0.2357716526076631,-0.37504965189595907,-0.49064672930701625,"(0.0, 0.0, 0.0, 0.0, 0.0, 0.0, 0.0, 0.0, 0.0)",-49.3125,-127.6875,-109.125,"(0.0, 0.0, 0.0, 0.0, 0.0, 0.0, 0.0, 0.0, 0.0)",0.51416015625,0.77587890625,0.4560546875,"(0.0, 0.0, 0.0, 0.0, 0.0, 0.0, 0.0, 0.0, 0.0)"
2022/11/28/23:03:59.992862,5438,1669698239,992149591,RU_myo,0.7325571359947163,0.22736005095653378,-0.38477255335033256,-0.5134369795023791,"(0.0, 0.0, 0.0, 0.0, 0.0, 0.0, 0.0, 0.0, 0.0)",-35.6875,-131.6875,-119.25,"(0.0, 0.0, 0.0, 0.0, 0.0, 0.0, 0.0, 0.0, 0.0)",0.5537109375,0.8017578125,0.5078125,"(0.0, 0.0, 0.0, 0.0, 0.0, 0.0, 0.0, 0.0, 0.0)"
2022/11/28/23:04:00.016115,5439,1669698240,14824867,RU_myo,0.7134199491650879,0.2189880039014745,-0.3940319267524859,-0.5364839894910705,"(0.0, 0.0, 0.0, 0.0, 0.0, 0.0, 0.0, 0.0, 0.0)",-35.625,-133.3125,-124.3125,"(0.0, 0.0, 0.0, 0.0, 0.0, 0.0, 0.0, 0.0, 0.0)",0.484375,0.80029296875,0.48193359375,"(0.0, 0.0, 0.0, 0.0, 0.0, 0.0, 0.0, 0.0, 0.0)"
2022/11/28/23:04:00.036365,5440,1669698240,35775661,RU_myo,0.6932822473662055,0.20604990466663525,-0.40251751222643944,-0.5611442012751909,"(0.0, 0.0, 0.0, 0.0, 0.0, 0.0, 0.0, 0.0, 0.0)",-60.1875,-148.8125,-124.3125,"(0.0, 0.0, 0.0, 0.0, 0.0, 0.0, 0.0, 0.0, 0.0)",0.43994140625,0.7783203125,0.39453125,"(0.0, 0.0, 0.0, 0.0, 0.0, 0.0, 0.0, 0.0, 0.0)"
2022/11/28/23:04:00.052051,5441,1669698240,51687479,RU_myo,0.67198391666661,0.1879846015743105,-0.40996511973202715,-0.5873908459581701,"(0.0, 0.0, 0.0, 0.0, 0.0, 0.0, 0.0, 0.0, 0.0)",-85.6875,-165.25,-124.25,"(0.0, 0.0, 0.0, 0.0, 0.0, 0.0, 0.0, 0.0, 0.0)",0.46533203125,0.72265625,0.3876953125,"(0.0, 0.0, 0.0, 0.0, 0.0, 0.0, 0.0, 0.0, 0.0)"
2022/11/28/23:04:00.075217,5442,1669698240,74837446,RU_myo,0.6490414950186955,0.16839434688325944,-0.41540120510600353,-0.6146790385869176,"(0.0, 0.0, 0.0, 0.0, 0.0, 0.0, 0.0, 0.0, 0.0)",-96.375,-167.875,-133.5625,"(0.0, 0.0, 0.0, 0.0, 0.0, 0.0, 0.0, 0.0, 0.0)",0.53515625,0.63623046875,0.52392578125,"(0.0, 0.0, 0.0, 0.0, 0.0, 0.0, 0.0, 0.0, 0.0)"
2022/11/28/23:04:00.097955,5443,1669698240,97401618,RU_myo,0.625783971340653,0.14819111308057206,-0.41967137295799567,-0.6405542552638401,"(0.0, 0.0, 0.0, 0.0, 0.0, 0.0, 0.0, 0.0, 0.0)",-96.8125,-165.1875,-130.1875,"(0.0, 0.0, 0.0, 0.0, 0.0, 0.0, 0.0, 0.0, 0.0)",0.5732421875,0.5234375,0.63623046875,"(0.0, 0.0, 0.0, 0.0, 0.0, 0.0, 0.0, 0.0, 0.0)"
2022/11/28/23:04:00.111938,5444,1669698240,111583709,RU_myo,0.6037463519601376,0.1258516960919737,-0.42272010045247804,-0.664047746595865,"(0.0, 0.0, 0.0, 0.0, 0.0, 0.0, 0.0, 0.0, 0.0)",-102.75,-163.9375,-113.875,"(0.0, 0.0, 0.0, 0.0, 0.0, 0.0, 0.0, 0.0, 0.0)",0.58984375,0.421875,0.64892578125,"(0.0, 0.0, 0.0, 0.0, 0.0, 0.0, 0.0, 0.0, 0.0)"
2022/11/28/23:04:00.135177,5445,1669698240,134857177,RU_myo,0.5823865199549767,0.10210989812247706,-0.42723806745806303,-0.6840081460003589,"(0.0, 0.0, 0.0, 0.0, 0.0, 0.0, 0.0, 0.0, 0.0)",-94.5625,-170.1875,-94.125,"(0.0, 0.0, 0.0, 0.0, 0.0, 0.0, 0.0, 0.0, 0.0)",0.560546875,0.3583984375,0.609375,"(0.0, 0.0, 0.0, 0.0, 0.0, 0.0, 0.0, 0.0, 0.0)"
2022/11/28/23:04:00.157748,5446,1669698240,157426357,RU_myo,0.5605821365651328,0.07720592299998834,-0.4335127834536895,-0.7013227361208427,"(0.0, 0.0, 0.0, 0.0, 0.0, 0.0, 0.0, 0.0, 0.0)",-84.8125,-180.5,-82.5625,"(0.0, 0.0, 0.0, 0.0, 0.0, 0.0, 0.0, 0.0, 0.0)",0.50732421875,0.33203125,0.556640625,"(0.0, 0.0, 0.0, 0.0, 0.0, 0.0, 0.0, 0.0, 0.0)"
2022/11/28/23:04:00.171840,5447,1669698240,171591281,RU_myo,0.5383856920555277,0.049865220542950464,-0.44030318359466913,-0.7167896573517873,"(0.0, 0.0, 0.0, 0.0, 0.0, 0.0, 0.0, 0.0, 0.0)",-86.3125,-192.375,-71.75,"(0.0, 0.0, 0.0, 0.0, 0.0, 0.0, 0.0, 0.0, 0.0)",0.52734375,0.35498046875,0.5419921875,"(0.0, 0.0, 0.0, 0.0, 0.0, 0.0, 0.0, 0.0, 0.0)"
2022/11/28/23:04:00.195331,5448,1669698240,194659471,RU_myo,0.5156830123631589,0.019286996319890903,-0.44524885491646876,-0.7317461989847216,"(0.0, 0.0, 0.0, 0.0, 0.0, 0.0, 0.0, 0.0, 0.0)",-101.1875,-200.9375,-65.375,"(0.0, 0.0, 0.0, 0.0, 0.0, 0.0, 0.0, 0.0, 0.0)",0.619140625,0.34521484375,0.6494140625,"(0.0, 0.0, 0.0, 0.0, 0.0, 0.0, 0.0, 0.0, 0.0)"
2022/11/28/23:04:00.217710,5449,1669698240,217375516,RU_myo,0.4934603438289616,-0.012206811226443083,-0.44811204012272554,-0.7453478934866146,"(0.0, 0.0, 0.0, 0.0, 0.0, 0.0, 0.0, 0.0, 0.0)",-108.4375,-197.8125,-57.6875,"(0.0, 0.0, 0.0, 0.0, 0.0, 0.0, 0.0, 0.0, 0.0)",0.6591796875,0.318359375,0.7236328125,"(0.0, 0.0, 0.0, 0.0, 0.0, 0.0, 0.0, 0.0, 0.0)"
2022/11/28/23:04:00.232140,5450,1669698240,231734037,RU_myo,0.47227903429067714,-0.042418445183771074,-0.4523210032473776,-0.755353492941512,"(0.0, 0.0, 0.0, 0.0, 0.0, 0.0, 0.0, 0.0, 0.0)",-89.0,-195.0625,-45.8125,"(0.0, 0.0, 0.0, 0.0, 0.0, 0.0, 0.0, 0.0, 0.0)",0.62255859375,0.29248046875,0.75732421875,"(0.0, 0.0, 0.0, 0.0, 0.0, 0.0, 0.0, 0.0, 0.0)"
2022/11/28/23:04:00.255305,5451,1669698240,254891157,RU_myo,0.45388964719973107,-0.06884328654582447,-0.45980968159241276,-0.7601446222768119,"(0.0, 0.0, 0.0, 0.0, 0.0, 0.0, 0.0, 0.0, 0.0)",-49.4375,-183.5,-29.375,"(0.0, 0.0, 0.0, 0.0, 0.0, 0.0, 0.0, 0.0, 0.0)",0.5771484375,0.27099609375,0.84716796875,"(0.0, 0.0, 0.0, 0.0, 0.0, 0.0, 0.0, 0.0, 0.0)"
2022/11/28/23:04:00.277444,5452,1669698240,277139902,RU_myo,0.438701937767617,-0.09106055803412418,-0.4722088053016211,-0.7591228021638314,"(0.0, 0.0, 0.0, 0.0, 0.0, 0.0, 0.0, 0.0, 0.0)",-1.3125,-171.625,-13.0625,"(0.0, 0.0, 0.0, 0.0, 0.0, 0.0, 0.0, 0.0, 0.0)",0.5849609375,0.34912109375,0.79248046875,"(0.0, 0.0, 0.0, 0.0, 0.0, 0.0, 0.0, 0.0, 0.0)"
2022/11/28/23:04:00.291819,5453,1669698240,291528701,RU_myo,0.42712956874150715,-0.1101698873361561,-0.4876161938662333,-0.7534277502922498,"(0.0, 0.0, 0.0, 0.0, 0.0, 0.0, 0.0, 0.0, 0.0)",33.375,-159.125,5.8125,"(0.0, 0.0, 0.0, 0.0, 0.0, 0.0, 0.0, 0.0, 0.0)",0.56298828125,0.40966796875,0.7763671875,"(0.0, 0.0, 0.0, 0.0, 0.0, 0.0, 0.0, 0.0, 0.0)"
2022/11/28/23:04:00.315387,5454,1669698240,315056800,RU_myo,0.41821411830637206,-0.12658728566366254,-0.5043960119211702,-0.7447531628100338,"(0.0, 0.0, 0.0, 0.0, 0.0, 0.0, 0.0, 0.0, 0.0)",55.8125,-146.0,16.5625,"(0.0, 0.0, 0.0, 0.0, 0.0, 0.0, 0.0, 0.0, 0.0)",0.51025390625,0.400390625,0.73486328125,"(0.0, 0.0, 0.0, 0.0, 0.0, 0.0, 0.0, 0.0, 0.0)"
2022/11/28/23:04:00.337858,5455,1669698240,337418079,RU_myo,0.4124017104512563,-0.1421464531065526,-0.5211629725533932,-0.7335587032579028,"(0.0, 0.0, 0.0, 0.0, 0.0, 0.0, 0.0, 0.0, 0.0)",69.125,-135.0,30.375,"(0.0, 0.0, 0.0, 0.0, 0.0, 0.0, 0.0, 0.0, 0.0)",0.59326171875,0.1904296875,0.7021484375,"(0.0, 0.0, 0.0, 0.0, 0.0, 0.0, 0.0, 0.0, 0.0)"
2022/11/28/23:04:00.352207,5456,1669698240,351811885,RU_myo,0.4128840867035838,-0.15508329110329733,-0.5399535129440659,-0.7168863979926526,"(0.0, 0.0, 0.0, 0.0, 0.0, 0.0, 0.0, 0.0, 0.0)",106.75,-114.875,57.5,"(0.0, 0.0, 0.0, 0.0, 0.0, 0.0, 0.0, 0.0, 0.0)",0.67578125,0.00537109375,0.72021484375,"(0.0, 0.0, 0.0, 0.0, 0.0, 0.0, 0.0, 0.0, 0.0)"
2022/11/28/23:04:00.375042,5457,1669698240,374644041,RU_myo,0.4217265265993607,-0.1651507931950608,-0.5640516004097383,-0.6904474957190402,"(0.0, 0.0, 0.0, 0.0, 0.0, 0.0, 0.0, 0.0, 0.0)",171.5625,-96.875,99.625,"(0.0, 0.0, 0.0, 0.0, 0.0, 0.0, 0.0, 0.0, 0.0)",0.70166015625,-0.09326171875,0.53857421875,"(0.0, 0.0, 0.0, 0.0, 0.0, 0.0, 0.0, 0.0, 0.0)"
2022/11/28/23:04:00.397100,5458,1669698240,396853923,RU_myo,0.43626425661903223,-0.17760618169577277,-0.5886027547333446,-0.6570208061701011,"(0.0, 0.0, 0.0, 0.0, 0.0, 0.0, 0.0, 0.0, 0.0)",193.4375,-93.8125,144.1875,"(0.0, 0.0, 0.0, 0.0, 0.0, 0.0, 0.0, 0.0, 0.0)",0.85791015625,-0.17236328125,0.32763671875,"(0.0, 0.0, 0.0, 0.0, 0.0, 0.0, 0.0, 0.0, 0.0)"
2022/11/28/23:04:00.418736,5459,1669698240,418281078,RU_myo,0.4529817209859098,-0.19078696575073484,-0.6122760206050454,-0.6192947349560801,"(0.0, 0.0, 0.0, 0.0, 0.0, 0.0, 0.0, 0.0, 0.0)",201.9375,-89.8125,169.125,"(0.0, 0.0, 0.0, 0.0, 0.0, 0.0, 0.0, 0.0, 0.0)",0.89501953125,0.03369140625,0.150390625,"(0.0, 0.0, 0.0, 0.0, 0.0, 0.0, 0.0, 0.0, 0.0)"
2022/11/28/23:04:00.435572,5460,1669698240,434895277,RU_myo,0.4714855650117441,-0.2018995791661941,-0.6356052652469001,-0.5770128843522367,"(0.0, 0.0, 0.0, 0.0, 0.0, 0.0, 0.0, 0.0, 0.0)",221.625,-79.0625,188.4375,"(0.0, 0.0, 0.0, 0.0, 0.0, 0.0, 0.0, 0.0, 0.0)",0.88671875,0.51953125,-0.02685546875,"(0.0, 0.0, 0.0, 0.0, 0.0, 0.0, 0.0, 0.0, 0.0)"
2022/11/28/23:04:00.457921,5461,1669698240,457641124,RU_myo,0.4874610649693163,-0.21385546158163068,-0.6528572695601322,-0.5389108806409243,"(0.0, 0.0, 0.0, 0.0, 0.0, 0.0, 0.0, 0.0, 0.0)",179.75,-69.0,182.375,"(0.0, 0.0, 0.0, 0.0, 0.0, 0.0, 0.0, 0.0, 0.0)",1.0068359375,0.75830078125,-0.166015625,"(0.0, 0.0, 0.0, 0.0, 0.0, 0.0, 0.0, 0.0, 0.0)"
2022/11/28/23:04:00.478867,5462,1669698240,478219270,RU_myo,0.49980985832154834,-0.22729172211374357,-0.6624662598879089,-0.5095753458452323,"(0.0, 0.0, 0.0, 0.0, 0.0, 0.0, 0.0, 0.0, 0.0)",115.9375,-56.125,163.5,"(0.0, 0.0, 0.0, 0.0, 0.0, 0.0, 0.0, 0.0, 0.0)",1.17138671875,0.9072265625,-0.10302734375,"(0.0, 0.0, 0.0, 0.0, 0.0, 0.0, 0.0, 0.0, 0.0)"
2022/11/28/23:04:00.495799,5463,1669698240,495146751,RU_myo,0.5169488885749866,-0.2355870968004071,-0.672155621000747,-0.474836169198748,"(0.0, 0.0, 0.0, 0.0, 0.0, 0.0, 0.0, 0.0, 0.0)",159.6875,-34.5,169.5625,"(0.0, 0.0, 0.0, 0.0, 0.0, 0.0, 0.0, 0.0, 0.0)",1.21337890625,0.58203125,0.10595703125,"(0.0, 0.0, 0.0, 0.0, 0.0, 0.0, 0.0, 0.0, 0.0)"
2022/11/28/23:04:00.518270,5464,1669698240,517502784,RU_myo,0.5424001079298043,-0.22838541733693346,-0.6899168245795553,-0.4214937712797601,"(0.0, 0.0, 0.0, 0.0, 0.0, 0.0, 0.0, 0.0, 0.0)",312.125,-12.1875,174.25,"(0.0, 0.0, 0.0, 0.0, 0.0, 0.0, 0.0, 0.0, 0.0)",1.3271484375,0.40478515625,0.24951171875,"(0.0, 0.0, 0.0, 0.0, 0.0, 0.0, 0.0, 0.0, 0.0)"
2022/11/28/23:04:00.538700,5465,1669698240,538245916,RU_myo,0.5660343352140399,-0.21648951768430016,-0.7040334328977734,-0.3702355270011178,"(0.0, 0.0, 0.0, 0.0, 0.0, 0.0, 0.0, 0.0, 0.0)",306.4375,7.75,158.125,"(0.0, 0.0, 0.0, 0.0, 0.0, 0.0, 0.0, 0.0, 0.0)",1.3505859375,0.81884765625,0.0615234375,"(0.0, 0.0, 0.0, 0.0, 0.0, 0.0, 0.0, 0.0, 0.0)"
2022/11/28/23:04:00.555338,5466,1669698240,554751396,RU_myo,0.5815309606759437,-0.2102617715710145,-0.7093359388093847,-0.3383108852882825,"(0.0, 0.0, 0.0, 0.0, 0.0, 0.0, 0.0, 0.0, 0.0)",181.25,18.0,120.9375,"(0.0, 0.0, 0.0, 0.0, 0.0, 0.0, 0.0, 0.0, 0.0)",1.130859375,1.23779296875,-0.083984375,"(0.0, 0.0, 0.0, 0.0, 0.0, 0.0, 0.0, 0.0, 0.0)"
2022/11/28/23:04:00.578291,5467,1669698240,577926158,RU_myo,0.5896569475921548,-0.2103258297694406,-0.7077592344766201,-0.32732949072939926,"(0.0, 0.0, 0.0, 0.0, 0.0, 0.0, 0.0, 0.0, 0.0)",55.1875,23.75,92.5,"(0.0, 0.0, 0.0, 0.0, 0.0, 0.0, 0.0, 0.0, 0.0)",1.0244140625,0.783203125,-0.08447265625,"(0.0, 0.0, 0.0, 0.0, 0.0, 0.0, 0.0, 0.0, 0.0)"
2022/11/28/23:04:00.599347,5468,1669698240,598553657,RU_myo,0.600440491805897,-0.21080722288041961,-0.7046844804219239,-0.31376952311182316,"(0.0, 0.0, 0.0, 0.0, 0.0, 0.0, 0.0, 0.0, 0.0)",62.5,28.75,72.125,"(0.0, 0.0, 0.0, 0.0, 0.0, 0.0, 0.0, 0.0, 0.0)",1.03759765625,0.20556640625,0.033203125,"(0.0, 0.0, 0.0, 0.0, 0.0, 0.0, 0.0, 0.0, 0.0)"
2022/11/28/23:04:00.615499,5469,1669698240,615150451,RU_myo,0.6127149562883856,-0.20806308257666165,-0.7024341500072746,-0.2964395400630231,"(0.0, 0.0, 0.0, 0.0, 0.0, 0.0, 0.0, 0.0, 0.0)",91.0,31.625,62.25,"(0.0, 0.0, 0.0, 0.0, 0.0, 0.0, 0.0, 0.0, 0.0)",1.03759765625,0.01171875,0.0615234375,"(0.0, 0.0, 0.0, 0.0, 0.0, 0.0, 0.0, 0.0, 0.0)"
2022/11/28/23:04:00.638128,5470,1669698240,637609720,RU_myo,0.6220782589911462,-0.2012354807588117,-0.7025846584818567,-0.28088737714651246,"(0.0, 0.0, 0.0, 0.0, 0.0, 0.0, 0.0, 0.0, 0.0)",97.75,35.75,53.75,"(0.0, 0.0, 0.0, 0.0, 0.0, 0.0, 0.0, 0.0, 0.0)",0.9775390625,0.30029296875,-0.14697265625,"(0.0, 0.0, 0.0, 0.0, 0.0, 0.0, 0.0, 0.0, 0.0)"
2022/11/28/23:04:00.658926,5471,1669698240,658392667,RU_myo,0.6281686588419306,-0.19506675414485136,-0.7034243872088273,-0.269345928047944,"(0.0, 0.0, 0.0, 0.0, 0.0, 0.0, 0.0, 0.0, 0.0)",76.25,30.75,43.375,"(0.0, 0.0, 0.0, 0.0, 0.0, 0.0, 0.0, 0.0, 0.0)",0.97802734375,0.39111328125,-0.25,"(0.0, 0.0, 0.0, 0.0, 0.0, 0.0, 0.0, 0.0, 0.0)"
2022/11/28/23:04:00.675026,5472,1669698240,674701929,RU_myo,0.6328077946615882,-0.19213724320936337,-0.7029977024413746,-0.2615947345601434,"(0.0, 0.0, 0.0, 0.0, 0.0, 0.0, 0.0, 0.0, 0.0)",45.6875,23.3125,29.5,"(0.0, 0.0, 0.0, 0.0, 0.0, 0.0, 0.0, 0.0, 0.0)",1.017578125,0.2109375,-0.171875,"(0.0, 0.0, 0.0, 0.0, 0.0, 0.0, 0.0, 0.0, 0.0)"
2022/11/28/23:04:00.697556,5473,1669698240,697215557,RU_myo,0.6368977449022893,-0.1894519022689704,-0.7021439058319058,-0.2558577236828363,"(0.0, 0.0, 0.0, 0.0, 0.0, 0.0, 0.0, 0.0, 0.0)",35.875,17.0625,14.5,"(0.0, 0.0, 0.0, 0.0, 0.0, 0.0, 0.0, 0.0, 0.0)",1.05615234375,0.0888671875,-0.05517578125,"(0.0, 0.0, 0.0, 0.0, 0.0, 0.0, 0.0, 0.0, 0.0)"
2022/11/28/23:04:00.718762,5474,1669698240,718267202,RU_myo,0.6401214369786425,-0.1872513890780392,-0.7012161698557994,-0.25194711020669686,"(0.0, 0.0, 0.0, 0.0, 0.0, 0.0, 0.0, 0.0, 0.0)",25.875,14.625,9.6875,"(0.0, 0.0, 0.0, 0.0, 0.0, 0.0, 0.0, 0.0, 0.0)",1.08984375,0.1044921875,-0.05078125,"(0.0, 0.0, 0.0, 0.0, 0.0, 0.0, 0.0, 0.0, 0.0)"
2022/11/28/23:04:00.736540,5475,1669698240,736083507,RU_myo,0.642192098516646,-0.18389325155204853,-0.7011502402356234,-0.24932092020913318,"(0.0, 0.0, 0.0, 0.0, 0.0, 0.0, 0.0, 0.0, 0.0)",24.875,13.75,3.3125,"(0.0, 0.0, 0.0, 0.0, 0.0, 0.0, 0.0, 0.0, 0.0)",1.01904296875,0.1728515625,-0.09912109375,"(0.0, 0.0, 0.0, 0.0, 0.0, 0.0, 0.0, 0.0, 0.0)"
2022/11/28/23:04:00.757717,5476,1669698240,757402181,RU_myo,0.6439616172577873,-0.1804142299890076,-0.7016380202820134,-0.2459028865445574,"(0.0, 0.0, 0.0, 0.0, 0.0, 0.0, 0.0, 0.0, 0.0)",28.8125,9.1875,0.875,"(0.0, 0.0, 0.0, 0.0, 0.0, 0.0, 0.0, 0.0, 0.0)",1.01220703125,0.11767578125,-0.0849609375,"(0.0, 0.0, 0.0, 0.0, 0.0, 0.0, 0.0, 0.0, 0.0)"
2022/11/28/23:04:00.779287,5477,1669698240,778445243,RU_myo,0.6444643928889421,-0.178221046238821,-0.7026914059409405,-0.24316186582721333,"(0.0, 0.0, 0.0, 0.0, 0.0, 0.0, 0.0, 0.0, 0.0)",20.625,2.25,-0.4375,"(0.0, 0.0, 0.0, 0.0, 0.0, 0.0, 0.0, 0.0, 0.0)",0.94091796875,0.0869140625,-0.10302734375,"(0.0, 0.0, 0.0, 0.0, 0.0, 0.0, 0.0, 0.0, 0.0)"
2022/11/28/23:04:00.795266,5478,1669698240,794813394,RU_myo,0.6431352399956378,-0.1796896788978986,-0.7031945620185767,-0.24414358545910136,"(0.0, 0.0, 0.0, 0.0, 0.0, 0.0, 0.0, 0.0, 0.0)",-10.125,-6.375,0.875,"(0.0, 0.0, 0.0, 0.0, 0.0, 0.0, 0.0, 0.0, 0.0)",0.94287109375,0.1220703125,-0.0791015625,"(0.0, 0.0, 0.0, 0.0, 0.0, 0.0, 0.0, 0.0, 0.0)"
2022/11/28/23:04:00.817823,5479,1669698240,817347526,RU_myo,0.6414794181068957,-0.18243406096303624,-0.7030638836511257,-0.2468261433705315,"(0.0, 0.0, 0.0, 0.0, 0.0, 0.0, 0.0, 0.0, 0.0)",-22.875,-7.8125,-1.75,"(0.0, 0.0, 0.0, 0.0, 0.0, 0.0, 0.0, 0.0, 0.0)",0.943359375,0.09765625,-0.04638671875,"(0.0, 0.0, 0.0, 0.0, 0.0, 0.0, 0.0, 0.0, 0.0)"
2022/11/28/23:04:00.846287,5480,1669698240,845809459,RU_myo,0.6396193957924016,-0.18608774215372448,-0.7027268819803161,-0.24986658457768054,"(0.0, 0.0, 0.0, 0.0, 0.0, 0.0, 0.0, 0.0, 0.0)",-28.4375,-8.25,-2.3125,"(0.0, 0.0, 0.0, 0.0, 0.0, 0.0, 0.0, 0.0, 0.0)",0.9375,0.05859375,-0.05419921875,"(0.0, 0.0, 0.0, 0.0, 0.0, 0.0, 0.0, 0.0, 0.0)"
2022/11/28/23:04:00.855507,5481,1669698240,854950904,RU_myo,0.637571288639376,-0.19042910401635582,-0.7023293909987841,-0.2529289125140316,"(0.0, 0.0, 0.0, 0.0, 0.0, 0.0, 0.0, 0.0, 0.0)",-31.1875,-11.125,-1.125,"(0.0, 0.0, 0.0, 0.0, 0.0, 0.0, 0.0, 0.0, 0.0)",0.9296875,0.03515625,-0.0380859375,"(0.0, 0.0, 0.0, 0.0, 0.0, 0.0, 0.0, 0.0, 0.0)"
2022/11/28/23:04:00.879333,5482,1669698240,878805875,RU_myo,0.6356158811113903,-0.19421257285350915,-0.7022047927968644,-0.2553083570855527,"(0.0, 0.0, 0.0, 0.0, 0.0, 0.0, 0.0, 0.0, 0.0)",-25.8125,-12.0625,-0.9375,"(0.0, 0.0, 0.0, 0.0, 0.0, 0.0, 0.0, 0.0, 0.0)",0.9560546875,0.03662109375,-0.03515625,"(0.0, 0.0, 0.0, 0.0, 0.0, 0.0, 0.0, 0.0, 0.0)"
2022/11/28/23:04:00.898560,5483,1669698240,898152112,RU_myo,0.6342039688858961,-0.19744488878316563,-0.7018906401874512,-0.25719714415216693,"(0.0, 0.0, 0.0, 0.0, 0.0, 0.0, 0.0, 0.0, 0.0)",-21.0,-10.6875,1.3125,"(0.0, 0.0, 0.0, 0.0, 0.0, 0.0, 0.0, 0.0, 0.0)",0.9794921875,0.0654296875,-0.01123046875,"(0.0, 0.0, 0.0, 0.0, 0.0, 0.0, 0.0, 0.0, 0.0)"
2022/11/28/23:04:00.915517,5484,1669698240,915089845,RU_myo,0.6333617385441955,-0.2000121824428379,-0.7012938590992394,-0.25891110098337455,"(0.0, 0.0, 0.0, 0.0, 0.0, 0.0, 0.0, 0.0, 0.0)",-17.875,-7.75,0.5625,"(0.0, 0.0, 0.0, 0.0, 0.0, 0.0, 0.0, 0.0, 0.0)",0.994140625,0.0693359375,0.001953125,"(0.0, 0.0, 0.0, 0.0, 0.0, 0.0, 0.0, 0.0, 0.0)"
2022/11/28/23:04:00.938046,5485,1669698240,937659502,RU_myo,0.6318972998624571,-0.20312510518132498,-0.7009280973264231,-0.2610474984556872,"(0.0, 0.0, 0.0, 0.0, 0.0, 0.0, 0.0, 0.0, 0.0)",-22.1875,-7.875,0.5625,"(0.0, 0.0, 0.0, 0.0, 0.0, 0.0, 0.0, 0.0, 0.0)",0.99365234375,0.0771484375,-0.05078125,"(0.0, 0.0, 0.0, 0.0, 0.0, 0.0, 0.0, 0.0, 0.0)"
2022/11/28/23:04:00.959085,5486,1669698240,958424568,RU_myo,0.6304186745358751,-0.20641649310488233,-0.7003634708393035,-0.26354418013804903,"(0.0, 0.0, 0.0, 0.0, 0.0, 0.0, 0.0, 0.0, 0.0)",-24.5,-8.625,1.125,"(0.0, 0.0, 0.0, 0.0, 0.0, 0.0, 0.0, 0.0, 0.0)",0.9990234375,0.08740234375,-0.02880859375,"(0.0, 0.0, 0.0, 0.0, 0.0, 0.0, 0.0, 0.0, 0.0)"
2022/11/28/23:04:00.974526,5487,1669698240,974199056,RU_myo,0.6288554266209206,-0.2092319132734656,-0.700145646779441,-0.26562931346736357,"(0.0, 0.0, 0.0, 0.0, 0.0, 0.0, 0.0, 0.0, 0.0)",-20.625,-8.75,-0.3125,"(0.0, 0.0, 0.0, 0.0, 0.0, 0.0, 0.0, 0.0, 0.0)",0.9970703125,0.080078125,-0.0458984375,"(0.0, 0.0, 0.0, 0.0, 0.0, 0.0, 0.0, 0.0, 0.0)"
2022/11/28/23:04:00.997510,5488,1669698240,997173309,RU_myo,0.6260973208420948,-0.2121577585540185,-0.7006210904607533,-0.26855412475192214,"(0.0, 0.0, 0.0, 0.0, 0.0, 0.0, 0.0, 0.0, 0.0)",-25.0,-12.4375,-3.4375,"(0.0, 0.0, 0.0, 0.0, 0.0, 0.0, 0.0, 0.0, 0.0)",0.9716796875,0.1123046875,-0.0908203125,"(0.0, 0.0, 0.0, 0.0, 0.0, 0.0, 0.0, 0.0, 0.0)"
2022/11/28/23:04:01.018969,5489,1669698241,18304586,RU_myo,0.6214551119780021,-0.21539138579555775,-0.702020889606264,-0.2730691584157907,"(0.0, 0.0, 0.0, 0.0, 0.0, 0.0, 0.0, 0.0, 0.0)",-33.625,-19.9375,-10.625,"(0.0, 0.0, 0.0, 0.0, 0.0, 0.0, 0.0, 0.0, 0.0)",0.978515625,0.13427734375,-0.12646484375,"(0.0, 0.0, 0.0, 0.0, 0.0, 0.0, 0.0, 0.0, 0.0)"
2022/11/28/23:04:01.034439,5490,1669698241,34158945,RU_myo,0.6145463471229532,-0.2201478472611473,-0.7035942287847259,-0.28075411627426605,"(0.0, 0.0, 0.0, 0.0, 0.0, 0.0, 0.0, 0.0, 0.0)",-54.25,-25.625,-17.5625,"(0.0, 0.0, 0.0, 0.0, 0.0, 0.0, 0.0, 0.0, 0.0)",1.00439453125,0.1796875,-0.1669921875,"(0.0, 0.0, 0.0, 0.0, 0.0, 0.0, 0.0, 0.0, 0.0)"
2022/11/28/23:04:01.041818,5491,1669698241,41451215,RU_myo,0.6070988123350809,-0.22612859150512465,-0.703592551382207,-0.2919835848206522,"(0.0, 0.0, 0.0, 0.0, 0.0, 0.0, 0.0, 0.0, 0.0)",-75.9375,-23.75,-25.9375,"(0.0, 0.0, 0.0, 0.0, 0.0, 0.0, 0.0, 0.0, 0.0)",1.08984375,0.169921875,-0.1298828125,"(0.0, 0.0, 0.0, 0.0, 0.0, 0.0, 0.0, 0.0, 0.0)"
2022/11/28/23:04:01.062778,5492,1669698241,62394618,RU_myo,0.6003353056914937,-0.23095453403178245,-0.7028122249936509,-0.3038297226242635,"(0.0, 0.0, 0.0, 0.0, 0.0, 0.0, 0.0, 0.0, 0.0)",-74.5,-17.0625,-31.5,"(0.0, 0.0, 0.0, 0.0, 0.0, 0.0, 0.0, 0.0, 0.0)",1.09228515625,0.173828125,-0.1064453125,"(0.0, 0.0, 0.0, 0.0, 0.0, 0.0, 0.0, 0.0, 0.0)"
2022/11/28/23:04:01.085442,5493,1669698241,85143327,RU_myo,0.592767271049341,-0.23364014760882182,-0.7026904439447141,-0.31664709660255164,"(0.0, 0.0, 0.0, 0.0, 0.0, 0.0, 0.0, 0.0, 0.0)",-71.0625,-15.9375,-42.625,"(0.0, 0.0, 0.0, 0.0, 0.0, 0.0, 0.0, 0.0, 0.0)",1.0302734375,0.22998046875,-0.12890625,"(0.0, 0.0, 0.0, 0.0, 0.0, 0.0, 0.0, 0.0, 0.0)"
2022/11/28/23:04:01.107792,5494,1669698241,107448816,RU_myo,0.58475453471702,-0.23625767705767503,-0.7011439405937925,-0.3326283492545412,"(0.0, 0.0, 0.0, 0.0, 0.0, 0.0, 0.0, 0.0, 0.0)",-85.5625,-12.0625,-45.8125,"(0.0, 0.0, 0.0, 0.0, 0.0, 0.0, 0.0, 0.0, 0.0)",1.00390625,0.34619140625,-0.072265625,"(0.0, 0.0, 0.0, 0.0, 0.0, 0.0, 0.0, 0.0, 0.0)"
2022/11/28/23:04:01.122957,5495,1669698241,122534990,RU_myo,0.5766556751017852,-0.2371807740734057,-0.6983588309181442,-0.35143769869137165,"(0.0, 0.0, 0.0, 0.0, 0.0, 0.0, 0.0, 0.0, 0.0)",-92.875,-3.375,-55.8125,"(0.0, 0.0, 0.0, 0.0, 0.0, 0.0, 0.0, 0.0, 0.0)",0.97265625,0.44140625,-0.0283203125,"(0.0, 0.0, 0.0, 0.0, 0.0, 0.0, 0.0, 0.0, 0.0)"
2022/11/28/23:04:01.145203,5496,1669698241,144865512,RU_myo,0.567135074941802,-0.23461765261260084,-0.6951860206185024,-0.37420416965865133,"(0.0, 0.0, 0.0, 0.0, 0.0, 0.0, 0.0, 0.0, 0.0)",-99.8125,7.5625,-78.625,"(0.0, 0.0, 0.0, 0.0, 0.0, 0.0, 0.0, 0.0, 0.0)",1.0078125,0.583984375,-0.05810546875,"(0.0, 0.0, 0.0, 0.0, 0.0, 0.0, 0.0, 0.0, 0.0)"
2022/11/28/23:04:01.167766,5497,1669698241,167413711,RU_myo,0.5558401515615504,-0.23608100430878196,-0.6874913217513237,-0.4033152214251373,"(0.0, 0.0, 0.0, 0.0, 0.0, 0.0, 0.0, 0.0, 0.0)",-152.25,16.9375,-95.5625,"(0.0, 0.0, 0.0, 0.0, 0.0, 0.0, 0.0, 0.0, 0.0)",0.974609375,0.73583984375,-0.111328125,"(0.0, 0.0, 0.0, 0.0, 0.0, 0.0, 0.0, 0.0, 0.0)"
2022/11/28/23:04:01.183452,5498,1669698241,182794809,RU_myo,0.5393505583548281,-0.2441939101479764,-0.6727081423771547,-0.4437725370372248,"(0.0, 0.0, 0.0, 0.0, 0.0, 0.0, 0.0, 0.0, 0.0)",-242.375,19.75,-108.0625,"(0.0, 0.0, 0.0, 0.0, 0.0, 0.0, 0.0, 0.0, 0.0)",0.9521484375,0.77197265625,-0.11181640625,"(0.0, 0.0, 0.0, 0.0, 0.0, 0.0, 0.0, 0.0, 0.0)"
2022/11/28/23:04:01.205261,5499,1669698241,204913854,RU_myo,0.5196383054692824,-0.2554247484600595,-0.6507380329943022,-0.4911967444699066,"(0.0, 0.0, 0.0, 0.0, 0.0, 0.0, 0.0, 0.0, 0.0)",-301.6875,30.25,-120.25,"(0.0, 0.0, 0.0, 0.0, 0.0, 0.0, 0.0, 0.0, 0.0)",1.0380859375,0.576171875,0.00439453125,"(0.0, 0.0, 0.0, 0.0, 0.0, 0.0, 0.0, 0.0, 0.0)"
2022/11/28/23:04:01.228042,5500,1669698241,227562904,RU_myo,0.49925403755258774,-0.2617726854600304,-0.6264478534767434,-0.5383154781434992,"(0.0, 0.0, 0.0, 0.0, 0.0, 0.0, 0.0, 0.0, 0.0)",-292.75,47.375,-142.375,"(0.0, 0.0, 0.0, 0.0, 0.0, 0.0, 0.0, 0.0, 0.0)",1.09228515625,0.2587890625,0.0908203125,"(0.0, 0.0, 0.0, 0.0, 0.0, 0.0, 0.0, 0.0, 0.0)"
2022/11/28/23:04:01.243157,5501,1669698241,242528676,RU_myo,0.4800929841725353,-0.26336145775546527,-0.6039918855036116,-0.5790900373543115,"(0.0, 0.0, 0.0, 0.0, 0.0, 0.0, 0.0, 0.0, 0.0)",-249.4375,53.3125,-142.625,"(0.0, 0.0, 0.0, 0.0, 0.0, 0.0, 0.0, 0.0, 0.0)",1.0576171875,0.1513671875,0.0439453125,"(0.0, 0.0, 0.0, 0.0, 0.0, 0.0, 0.0, 0.0, 0.0)"
2022/11/28/23:04:01.265414,5502,1669698241,264944076,RU_myo,0.4629463699464649,-0.26061713904698813,-0.5862359767087403,-0.6116263115667139,"(0.0, 0.0, 0.0, 0.0, 0.0, 0.0, 0.0, 0.0, 0.0)",-190.1875,49.75,-134.5,"(0.0, 0.0, 0.0, 0.0, 0.0, 0.0, 0.0, 0.0, 0.0)",0.99462890625,0.216796875,0.04931640625,"(0.0, 0.0, 0.0, 0.0, 0.0, 0.0, 0.0, 0.0, 0.0)"
2022/11/28/23:04:01.287931,5503,1669698241,287582159,RU_myo,0.4484707158584421,-0.2558504682741684,-0.5726729350707352,-0.6367576182023853,"(0.0, 0.0, 0.0, 0.0, 0.0, 0.0, 0.0, 0.0, 0.0)",-140.1875,42.5,-119.0,"(0.0, 0.0, 0.0, 0.0, 0.0, 0.0, 0.0, 0.0, 0.0)",0.93603515625,0.1494140625,0.1708984375,"(0.0, 0.0, 0.0, 0.0, 0.0, 0.0, 0.0, 0.0, 0.0)"
2022/11/28/23:04:01.303036,5504,1669698241,302623748,RU_myo,0.43865089864836054,-0.24706537327515843,-0.5643197730489414,-0.6542837948393523,"(0.0, 0.0, 0.0, 0.0, 0.0, 0.0, 0.0, 0.0, 0.0)",-77.8125,46.0625,-103.125,"(0.0, 0.0, 0.0, 0.0, 0.0, 0.0, 0.0, 0.0, 0.0)",0.8759765625,0.1591796875,0.3046875,"(0.0, 0.0, 0.0, 0.0, 0.0, 0.0, 0.0, 0.0, 0.0)"
2022/11/28/23:04:01.325182,5505,1669698241,324876785,RU_myo,0.43371171725654545,-0.23663106217332208,-0.5609688141436686,-0.6642393215455931,"(0.0, 0.0, 0.0, 0.0, 0.0, 0.0, 0.0, 0.0, 0.0)",-18.75,43.1875,-89.6875,"(0.0, 0.0, 0.0, 0.0, 0.0, 0.0, 0.0, 0.0, 0.0)",0.83447265625,0.26171875,0.30908203125,"(0.0, 0.0, 0.0, 0.0, 0.0, 0.0, 0.0, 0.0, 0.0)"
2022/11/28/23:04:01.347852,5506,1669698241,347477436,RU_myo,0.43255449744828384,-0.22363195691414026,-0.5614602542721551,-0.6690648230602635,"(0.0, 0.0, 0.0, 0.0, 0.0, 0.0, 0.0, 0.0, 0.0)",28.375,42.4375,-75.125,"(0.0, 0.0, 0.0, 0.0, 0.0, 0.0, 0.0, 0.0, 0.0)",0.86767578125,0.326171875,0.45166015625,"(0.0, 0.0, 0.0, 0.0, 0.0, 0.0, 0.0, 0.0, 0.0)"
2022/11/28/23:04:01.362857,5507,1669698241,362375020,RU_myo,0.4350904556061623,-0.2091534564963274,-0.5618519756361804,-0.6717689219886419,"(0.0, 0.0, 0.0, 0.0, 0.0, 0.0, 0.0, 0.0, 0.0)",48.3125,51.25,-59.375,"(0.0, 0.0, 0.0, 0.0, 0.0, 0.0, 0.0, 0.0, 0.0)",0.8564453125,0.36181640625,0.58984375,"(0.0, 0.0, 0.0, 0.0, 0.0, 0.0, 0.0, 0.0, 0.0)"
2022/11/28/23:04:01.385336,5508,1669698241,384960174,RU_myo,0.43890042899663023,-0.19396823297890292,-0.560115315936876,-0.6752877689359917,"(0.0, 0.0, 0.0, 0.0, 0.0, 0.0, 0.0, 0.0, 0.0)",40.875,62.9375,-51.875,"(0.0, 0.0, 0.0, 0.0, 0.0, 0.0, 0.0, 0.0, 0.0)",0.8232421875,0.43896484375,0.62841796875,"(0.0, 0.0, 0.0, 0.0, 0.0, 0.0, 0.0, 0.0, 0.0)"
2022/11/28/23:04:01.407680,5509,1669698241,407322645,RU_myo,0.44333132121381846,-0.17717384712055548,-0.5555678712843323,-0.6807430557294784,"(0.0, 0.0, 0.0, 0.0, 0.0, 0.0, 0.0, 0.0, 0.0)",26.875,80.0625,-49.375,"(0.0, 0.0, 0.0, 0.0, 0.0, 0.0, 0.0, 0.0, 0.0)",0.7919921875,0.57666015625,0.66357421875,"(0.0, 0.0, 0.0, 0.0, 0.0, 0.0, 0.0, 0.0, 0.0)"
2022/11/28/23:04:01.422917,5510,1669698241,422453403,RU_myo,0.44841522094156455,-0.1592371459693129,-0.5507078451824877,-0.6857756121545419,"(0.0, 0.0, 0.0, 0.0, 0.0, 0.0, 0.0, 0.0, 0.0)",19.6875,100.0,-46.5625,"(0.0, 0.0, 0.0, 0.0, 0.0, 0.0, 0.0, 0.0, 0.0)",0.7841796875,0.55908203125,0.66943359375,"(0.0, 0.0, 0.0, 0.0, 0.0, 0.0, 0.0, 0.0, 0.0)"
2022/11/28/23:04:01.445852,5511,1669698241,445236444,RU_myo,0.45670634222874856,-0.13945930669419893,-0.5445931700797974,-0.6894843709953458,"(0.0, 0.0, 0.0, 0.0, 0.0, 0.0, 0.0, 0.0, 0.0)",26.9375,120.25,-38.0,"(0.0, 0.0, 0.0, 0.0, 0.0, 0.0, 0.0, 0.0, 0.0)",0.81494140625,0.40283203125,0.65771484375,"(0.0, 0.0, 0.0, 0.0, 0.0, 0.0, 0.0, 0.0, 0.0)"
2022/11/28/23:04:01.468043,5512,1669698241,467619419,RU_myo,0.4689127412958524,-0.11626692335918246,-0.5399545779310694,-0.6892400868741456,"(0.0, 0.0, 0.0, 0.0, 0.0, 0.0, 0.0, 0.0, 0.0)",57.3125,140.3125,-25.6875,"(0.0, 0.0, 0.0, 0.0, 0.0, 0.0, 0.0, 0.0, 0.0)",0.8056640625,0.28759765625,0.60107421875,"(0.0, 0.0, 0.0, 0.0, 0.0, 0.0, 0.0, 0.0, 0.0)"
2022/11/28/23:04:01.482981,5513,1669698241,482511281,RU_myo,0.4850266498296944,-0.08819221203018855,-0.5394067611922535,-0.682650443984539,"(0.0, 0.0, 0.0, 0.0, 0.0, 0.0, 0.0, 0.0, 0.0)",108.4375,157.625,-11.0,"(0.0, 0.0, 0.0, 0.0, 0.0, 0.0, 0.0, 0.0, 0.0)",0.8388671875,0.3173828125,0.55126953125,"(0.0, 0.0, 0.0, 0.0, 0.0, 0.0, 0.0, 0.0, 0.0)"
2022/11/28/23:04:01.505295,5514,1669698241,504898548,RU_myo,0.5040101906848214,-0.053831071468153614,-0.5435595493144854,-0.6690433168184806,"(0.0, 0.0, 0.0, 0.0, 0.0, 0.0, 0.0, 0.0, 0.0)",165.75,175.6875,-1.375,"(0.0, 0.0, 0.0, 0.0, 0.0, 0.0, 0.0, 0.0, 0.0)",0.79931640625,0.40869140625,0.46435546875,"(0.0, 0.0, 0.0, 0.0, 0.0, 0.0, 0.0, 0.0, 0.0)"
2022/11/28/23:04:01.527929,5515,1669698241,527552843,RU_myo,0.5231152202664733,-0.014770024886767767,-0.5513125405048481,-0.6497590286964035,"(0.0, 0.0, 0.0, 0.0, 0.0, 0.0, 0.0, 0.0, 0.0)",210.5,182.375,-0.0625,"(0.0, 0.0, 0.0, 0.0, 0.0, 0.0, 0.0, 0.0, 0.0)",0.751953125,0.39453125,0.37646484375,"(0.0, 0.0, 0.0, 0.0, 0.0, 0.0, 0.0, 0.0, 0.0)"
2022/11/28/23:04:01.543238,5516,1669698241,542679548,RU_myo,0.5416181792751417,0.025390259474696746,-0.561393285212165,-0.6251741052868239,"(0.0, 0.0, 0.0, 0.0, 0.0, 0.0, 0.0, 0.0, 0.0)",237.875,178.125,9.625,"(0.0, 0.0, 0.0, 0.0, 0.0, 0.0, 0.0, 0.0, 0.0)",0.72607421875,0.38525390625,0.25830078125,"(0.0, 0.0, 0.0, 0.0, 0.0, 0.0, 0.0, 0.0, 0.0)"
2022/11/28/23:04:01.565557,5517,1669698241,565175056,RU_myo,0.558747197026333,0.06396144866014167,-0.5712587399417233,-0.597807623689015,"(0.0, 0.0, 0.0, 0.0, 0.0, 0.0, 0.0, 0.0, 0.0)",239.0,169.8125,20.375,"(0.0, 0.0, 0.0, 0.0, 0.0, 0.0, 0.0, 0.0, 0.0)",0.72119140625,0.6259765625,0.13623046875,"(0.0, 0.0, 0.0, 0.0, 0.0, 0.0, 0.0, 0.0, 0.0)"
2022/11/28/23:04:01.587798,5518,1669698241,587469816,RU_myo,0.5709042669618972,0.10210849247672162,-0.5790827116671456,-0.5729793947229305,"(0.0, 0.0, 0.0, 0.0, 0.0, 0.0, 0.0, 0.0, 0.0)",221.9375,157.25,-0.25,"(0.0, 0.0, 0.0, 0.0, 0.0, 0.0, 0.0, 0.0, 0.0)",0.5283203125,0.80224609375,0.017578125,"(0.0, 0.0, 0.0, 0.0, 0.0, 0.0, 0.0, 0.0, 0.0)"
2022/11/28/23:04:01.602858,5519,1669698241,602486848,RU_myo,0.5787876662273661,0.13061326644801893,-0.5849521241298193,-0.552970184121052,"(0.0, 0.0, 0.0, 0.0, 0.0, 0.0, 0.0, 0.0, 0.0)",170.375,114.8125,0.875,"(0.0, 0.0, 0.0, 0.0, 0.0, 0.0, 0.0, 0.0, 0.0)",0.38916015625,0.6572265625,-0.05517578125,"(0.0, 0.0, 0.0, 0.0, 0.0, 0.0, 0.0, 0.0, 0.0)"
2022/11/28/23:04:01.625168,5520,1669698241,624818086,RU_myo,0.5856328194540226,0.1442261961823716,-0.5906987417067254,-0.5360111954606802,"(0.0, 0.0, 0.0, 0.0, 0.0, 0.0, 0.0, 0.0, 0.0)",95.625,75.0625,29.1875,"(0.0, 0.0, 0.0, 0.0, 0.0, 0.0, 0.0, 0.0, 0.0)",0.541015625,0.5927734375,-0.1484375,"(0.0, 0.0, 0.0, 0.0, 0.0, 0.0, 0.0, 0.0, 0.0)"
2022/11/28/23:04:01.652310,5521,1669698241,651940107,RU_myo,0.5900734464631938,0.15227898726992847,-0.5938575335216049,-0.5253167308345789,"(0.0, 0.0, 0.0, 0.0, 0.0, 0.0, 0.0, 0.0, 0.0)",44.5,55.25,22.8125,"(0.0, 0.0, 0.0, 0.0, 0.0, 0.0, 0.0, 0.0, 0.0)",0.59716796875,0.82177734375,-0.1845703125,"(0.0, 0.0, 0.0, 0.0, 0.0, 0.0, 0.0, 0.0, 0.0)"
2022/11/28/23:04:01.663092,5522,1669698241,662563562,RU_myo,0.5914434323150168,0.1599765981524932,-0.5939459277458646,-0.521373560251277,"(0.0, 0.0, 0.0, 0.0, 0.0, 0.0, 0.0, 0.0, 0.0)",17.1875,40.4375,7.0625,"(0.0, 0.0, 0.0, 0.0, 0.0, 0.0, 0.0, 0.0, 0.0)",0.40869140625,1.0322265625,-0.06298828125,"(0.0, 0.0, 0.0, 0.0, 0.0, 0.0, 0.0, 0.0, 0.0)"
2022/11/28/23:04:01.685521,5523,1669698241,685020685,RU_myo,0.5929014139856309,0.1594254162374375,-0.5907041264724043,-0.5235647857904819,"(0.0, 0.0, 0.0, 0.0, 0.0, 0.0, 0.0, 0.0, 0.0)",-34.5,19.0,4.0,"(0.0, 0.0, 0.0, 0.0, 0.0, 0.0, 0.0, 0.0, 0.0)",0.36572265625,0.7685546875,-0.01123046875,"(0.0, 0.0, 0.0, 0.0, 0.0, 0.0, 0.0, 0.0, 0.0)"
2022/11/28/23:04:01.708418,5524,1669698241,708016633,RU_myo,0.595224447316967,0.15167481045761516,-0.5874118212652266,-0.5269250055052682,"(0.0, 0.0, 0.0, 0.0, 0.0, 0.0, 0.0, 0.0, 0.0)",-59.3125,2.3125,9.0,"(0.0, 0.0, 0.0, 0.0, 0.0, 0.0, 0.0, 0.0, 0.0)",0.58642578125,0.61865234375,0.03173828125,"(0.0, 0.0, 0.0, 0.0, 0.0, 0.0, 0.0, 0.0, 0.0)"
2022/11/28/23:04:01.722566,5525,1669698241,722249984,RU_myo,0.5974652343340722,0.14690967606927283,-0.5874556012325512,-0.5256888408743858,"(0.0, 0.0, 0.0, 0.0, 0.0, 0.0, 0.0, 0.0, 0.0)",-16.6875,-0.5625,16.0625,"(0.0, 0.0, 0.0, 0.0, 0.0, 0.0, 0.0, 0.0, 0.0)",0.63232421875,0.63623046875,0.1669921875,"(0.0, 0.0, 0.0, 0.0, 0.0, 0.0, 0.0, 0.0, 0.0)"
2022/11/28/23:04:01.745730,5526,1669698241,745226383,RU_myo,0.5993891246320602,0.1466733265265622,-0.5899282983267681,-0.5207727099145354,"(0.0, 0.0, 0.0, 0.0, 0.0, 0.0, 0.0, 0.0, 0.0)",24.5625,2.0,17.9375,"(0.0, 0.0, 0.0, 0.0, 0.0, 0.0, 0.0, 0.0, 0.0)",0.603515625,0.66552734375,0.271484375,"(0.0, 0.0, 0.0, 0.0, 0.0, 0.0, 0.0, 0.0, 0.0)"
2022/11/28/23:04:01.768296,5527,1669698241,767905712,RU_myo,0.6010558561094809,0.14910433148613544,-0.5934266946539889,-0.5141444488085162,"(0.0, 0.0, 0.0, 0.0, 0.0, 0.0, 0.0, 0.0, 0.0)",42.5,6.25,16.75,"(0.0, 0.0, 0.0, 0.0, 0.0, 0.0, 0.0, 0.0, 0.0)",0.5966796875,0.69287109375,0.2724609375,"(0.0, 0.0, 0.0, 0.0, 0.0, 0.0, 0.0, 0.0, 0.0)"
2022/11/28/23:04:01.782947,5528,1669698241,782552719,RU_myo,0.6027100447559456,0.15227965181428701,-0.5972780251120692,-0.5067647090236573,"(0.0, 0.0, 0.0, 0.0, 0.0, 0.0, 0.0, 0.0, 0.0)",45.25,9.125,20.6875,"(0.0, 0.0, 0.0, 0.0, 0.0, 0.0, 0.0, 0.0, 0.0)",0.60302734375,0.7939453125,0.22705078125,"(0.0, 0.0, 0.0, 0.0, 0.0, 0.0, 0.0, 0.0, 0.0)"
2022/11/28/23:04:01.805394,5529,1669698241,805039167,RU_myo,0.6037091006583415,0.15484885131636966,-0.5998638197624285,-0.5017176026096014,"(0.0, 0.0, 0.0, 0.0, 0.0, 0.0, 0.0, 0.0, 0.0)",30.375,7.0,17.125,"(0.0, 0.0, 0.0, 0.0, 0.0, 0.0, 0.0, 0.0, 0.0)",0.59521484375,0.90576171875,0.2255859375,"(0.0, 0.0, 0.0, 0.0, 0.0, 0.0, 0.0, 0.0, 0.0)"
2022/11/28/23:04:01.828227,5530,1669698241,827699422,RU_myo,0.6042418758547166,0.15521081720187316,-0.5999084240177787,-0.5009104116302685,"(0.0, 0.0, 0.0, 0.0, 0.0, 0.0, 0.0, 0.0, 0.0)",2.3125,3.0,7.4375,"(0.0, 0.0, 0.0, 0.0, 0.0, 0.0, 0.0, 0.0, 0.0)",0.57421875,0.90576171875,0.244140625,"(0.0, 0.0, 0.0, 0.0, 0.0, 0.0, 0.0, 0.0, 0.0)"
2022/11/28/23:04:01.842749,5531,1669698241,842410564,RU_myo,0.6051397532749273,0.1525818843355843,-0.5976937573193508,-0.5032760872924913,"(0.0, 0.0, 0.0, 0.0, 0.0, 0.0, 0.0, 0.0, 0.0)",-22.3125,-0.6875,2.4375,"(0.0, 0.0, 0.0, 0.0, 0.0, 0.0, 0.0, 0.0, 0.0)",0.56201171875,0.7998046875,0.28076171875,"(0.0, 0.0, 0.0, 0.0, 0.0, 0.0, 0.0, 0.0, 0.0)"
2022/11/28/23:04:01.865512,5532,1669698241,864989519,RU_myo,0.606145963695562,0.14880514142480916,-0.595281601442233,-0.5060473451817444,"(0.0, 0.0, 0.0, 0.0, 0.0, 0.0, 0.0, 0.0, 0.0)",-26.6875,-3.0625,0.0625,"(0.0, 0.0, 0.0, 0.0, 0.0, 0.0, 0.0, 0.0, 0.0)",0.5830078125,0.7080078125,0.287109375,"(0.0, 0.0, 0.0, 0.0, 0.0, 0.0, 0.0, 0.0, 0.0)"
2022/11/28/23:04:01.887831,5533,1669698241,887447595,RU_myo,0.6072893268009532,0.14605460894820915,-0.594289062820189,-0.5066440906306243,"(0.0, 0.0, 0.0, 0.0, 0.0, 0.0, 0.0, 0.0, 0.0)",-11.1875,-1.875,2.5625,"(0.0, 0.0, 0.0, 0.0, 0.0, 0.0, 0.0, 0.0, 0.0)",0.61376953125,0.65380859375,0.291015625,"(0.0, 0.0, 0.0, 0.0, 0.0, 0.0, 0.0, 0.0, 0.0)"
2022/11/28/23:04:01.902681,5534,1669698241,902374982,RU_myo,0.6084539204795725,0.14575062314226292,-0.5944159626392373,-0.5051833784541501,"(0.0, 0.0, 0.0, 0.0, 0.0, 0.0, 0.0, 0.0, 0.0)",7.8125,2.3125,3.9375,"(0.0, 0.0, 0.0, 0.0, 0.0, 0.0, 0.0, 0.0, 0.0)",0.6357421875,0.71240234375,0.3115234375,"(0.0, 0.0, 0.0, 0.0, 0.0, 0.0, 0.0, 0.0, 0.0)"
2022/11/28/23:04:01.925246,5535,1669698241,924825668,RU_myo,0.6090544786748574,0.14733515497756344,-0.5953829481384141,-0.5028559825435565,"(0.0, 0.0, 0.0, 0.0, 0.0, 0.0, 0.0, 0.0, 0.0)",18.1875,3.625,4.25,"(0.0, 0.0, 0.0, 0.0, 0.0, 0.0, 0.0, 0.0, 0.0)",0.5859375,0.77392578125,0.29150390625,"(0.0, 0.0, 0.0, 0.0, 0.0, 0.0, 0.0, 0.0, 0.0)"
2022/11/28/23:04:01.948099,5536,1669698241,947638750,RU_myo,0.6094922783658028,0.14794805555364568,-0.5963698229433465,-0.5009726237559091,"(0.0, 0.0, 0.0, 0.0, 0.0, 0.0, 0.0, 0.0, 0.0)",12.125,0.5625,6.75,"(0.0, 0.0, 0.0, 0.0, 0.0, 0.0, 0.0, 0.0, 0.0)",0.58251953125,0.78759765625,0.26611328125,"(0.0, 0.0, 0.0, 0.0, 0.0, 0.0, 0.0, 0.0, 0.0)"
2022/11/28/23:04:01.963036,5537,1669698241,962535619,RU_myo,0.6098621702852487,0.1473996338309523,-0.5967396355963647,-0.5002432293492692,"(0.0, 0.0, 0.0, 0.0, 0.0, 0.0, 0.0, 0.0, 0.0)",2.125,-1.75,5.4375,"(0.0, 0.0, 0.0, 0.0, 0.0, 0.0, 0.0, 0.0, 0.0)",0.59423828125,0.7861328125,0.26513671875,"(0.0, 0.0, 0.0, 0.0, 0.0, 0.0, 0.0, 0.0, 0.0)"
2022/11/28/23:04:01.985409,5538,1669698241,985049486,RU_myo,0.6099796832082794,0.14672715213455112,-0.596430004433791,-0.5006667341762574,"(0.0, 0.0, 0.0, 0.0, 0.0, 0.0, 0.0, 0.0, 0.0)",-3.5625,-1.5,0.4375,"(0.0, 0.0, 0.0, 0.0, 0.0, 0.0, 0.0, 0.0, 0.0)",0.58984375,0.78076171875,0.26513671875,"(0.0, 0.0, 0.0, 0.0, 0.0, 0.0, 0.0, 0.0, 0.0)"
2022/11/28/23:04:02.007834,5539,1669698242,7481336,RU_myo,0.6104010564786426,0.14544402735612494,-0.5957528959392092,-0.5013332944621108,"(0.0, 0.0, 0.0, 0.0, 0.0, 0.0, 0.0, 0.0, 0.0)",-6.6875,-1.3125,-0.1875,"(0.0, 0.0, 0.0, 0.0, 0.0, 0.0, 0.0, 0.0, 0.0)",0.59423828125,0.7197265625,0.27880859375,"(0.0, 0.0, 0.0, 0.0, 0.0, 0.0, 0.0, 0.0, 0.0)"
2022/11/28/23:04:02.022834,5540,1669698242,22501945,RU_myo,0.6112528877706365,0.14379548712806986,-0.5953841158464861,-0.501209057850471,"(0.0, 0.0, 0.0, 0.0, 0.0, 0.0, 0.0, 0.0, 0.0)",-3.75,-1.3125,2.75,"(0.0, 0.0, 0.0, 0.0, 0.0, 0.0, 0.0, 0.0, 0.0)",0.61376953125,0.67919921875,0.27783203125,"(0.0, 0.0, 0.0, 0.0, 0.0, 0.0, 0.0, 0.0, 0.0)"
2022/11/28/23:04:02.045519,5541,1669698242,45116662,RU_myo,0.6121847632038291,0.14282276629082352,-0.5955221071365664,-0.5001848588689312,"(0.0, 0.0, 0.0, 0.0, 0.0, 0.0, 0.0, 0.0, 0.0)",2.5,-0.125,5.3125,"(0.0, 0.0, 0.0, 0.0, 0.0, 0.0, 0.0, 0.0, 0.0)",0.609375,0.69970703125,0.2802734375,"(0.0, 0.0, 0.0, 0.0, 0.0, 0.0, 0.0, 0.0, 0.0)"
2022/11/28/23:04:02.067842,5542,1669698242,67546367,RU_myo,0.612848754079364,0.14263793828139368,-0.5957590567242976,-0.4991412320347614,"(0.0, 0.0, 0.0, 0.0, 0.0, 0.0, 0.0, 0.0, 0.0)",4.875,0.8125,5.25,"(0.0, 0.0, 0.0, 0.0, 0.0, 0.0, 0.0, 0.0, 0.0)",0.59716796875,0.75732421875,0.27978515625,"(0.0, 0.0, 0.0, 0.0, 0.0, 0.0, 0.0, 0.0, 0.0)"
2022/11/28/23:04:02.083432,5543,1669698242,82843542,RU_myo,0.6133675741053914,0.1423256898322162,-0.5957294418748981,-0.49862816720806447,"(0.0, 0.0, 0.0, 0.0, 0.0, 0.0, 0.0, 0.0, 0.0)",1.875,0.0,4.125,"(0.0, 0.0, 0.0, 0.0, 0.0, 0.0, 0.0, 0.0, 0.0)",0.59765625,0.77392578125,0.28369140625,"(0.0, 0.0, 0.0, 0.0, 0.0, 0.0, 0.0, 0.0, 0.0)"
2022/11/28/23:04:02.105788,5544,1669698242,105443477,RU_myo,0.6140784804730329,0.14111414838024572,-0.5954626434246009,-0.49841614864752876,"(0.0, 0.0, 0.0, 0.0, 0.0, 0.0, 0.0, 0.0, 0.0)",-1.875,-1.5,4.9375,"(0.0, 0.0, 0.0, 0.0, 0.0, 0.0, 0.0, 0.0, 0.0)",0.59814453125,0.73779296875,0.294921875,"(0.0, 0.0, 0.0, 0.0, 0.0, 0.0, 0.0, 0.0, 0.0)"
2022/11/28/23:04:02.127883,5545,1669698242,127526998,RU_myo,0.6148705084665312,0.13964896995944245,-0.5954002193856474,-0.4979267032032918,"(0.0, 0.0, 0.0, 0.0, 0.0, 0.0, 0.0, 0.0, 0.0)",-2.125,-1.6875,5.5,"(0.0, 0.0, 0.0, 0.0, 0.0, 0.0, 0.0, 0.0, 0.0)",0.61376953125,0.71240234375,0.279296875,"(0.0, 0.0, 0.0, 0.0, 0.0, 0.0, 0.0, 0.0, 0.0)"
2022/11/28/23:04:02.143057,5546,1669698242,142547369,RU_myo,0.6154627541283975,0.13872935741113124,-0.595321668362593,-0.49754585200859736,"(0.0, 0.0, 0.0, 0.0, 0.0, 0.0, 0.0, 0.0, 0.0)",-0.8125,-1.1875,4.3125,"(0.0, 0.0, 0.0, 0.0, 0.0, 0.0, 0.0, 0.0, 0.0)",0.626953125,0.7646484375,0.2890625,"(0.0, 0.0, 0.0, 0.0, 0.0, 0.0, 0.0, 0.0, 0.0)"
2022/11/28/23:04:02.165926,5547,1669698242,165370702,RU_myo,0.6156062550308908,0.138551080598862,-0.5950982536735262,-0.4976852472260444,"(0.0, 0.0, 0.0, 0.0, 0.0, 0.0, 0.0, 0.0, 0.0)",0.125,-1.375,2.375,"(0.0, 0.0, 0.0, 0.0, 0.0, 0.0, 0.0, 0.0, 0.0)",0.6005859375,0.81494140625,0.3046875,"(0.0, 0.0, 0.0, 0.0, 0.0, 0.0, 0.0, 0.0, 0.0)"
2022/11/28/23:04:02.187764,5548,1669698242,187464952,RU_myo,0.6161476919458693,0.13806102815072377,-0.59399200970948,-0.4984723328501154,"(0.0, 0.0, 0.0, 0.0, 0.0, 0.0, 0.0, 0.0, 0.0)",-5.0625,0.9375,0.5625,"(0.0, 0.0, 0.0, 0.0, 0.0, 0.0, 0.0, 0.0, 0.0)",0.6015625,0.8017578125,0.32421875,"(0.0, 0.0, 0.0, 0.0, 0.0, 0.0, 0.0, 0.0, 0.0)"
2022/11/28/23:04:02.206620,5549,1669698242,206254482,RU_myo,0.6176840673955009,0.13714783591281526,-0.5916217060538131,-0.499640491669918,"(0.0, 0.0, 0.0, 0.0, 0.0, 0.0, 0.0, 0.0, 0.0)",-10.5625,7.125,-0.125,"(0.0, 0.0, 0.0, 0.0, 0.0, 0.0, 0.0, 0.0, 0.0)",0.62451171875,0.75927734375,0.349609375,"(0.0, 0.0, 0.0, 0.0, 0.0, 0.0, 0.0, 0.0, 0.0)"
2022/11/28/23:04:02.225892,5550,1669698242,225294351,RU_myo,0.6200582012255981,0.1375126614195563,-0.588014638311587,-0.5008561471854767,"(0.0, 0.0, 0.0, 0.0, 0.0, 0.0, 0.0, 0.0, 0.0)",-8.6875,16.5625,-3.25,"(0.0, 0.0, 0.0, 0.0, 0.0, 0.0, 0.0, 0.0, 0.0)",0.611328125,0.740234375,0.37939453125,"(0.0, 0.0, 0.0, 0.0, 0.0, 0.0, 0.0, 0.0, 0.0)"
2022/11/28/23:04:02.248369,5551,1669698242,247789621,RU_myo,0.6226631037721114,0.14019380017296018,-0.5834796385082714,-0.502183103101052,"(0.0, 0.0, 0.0, 0.0, 0.0, 0.0, 0.0, 0.0, 0.0)",-3.0625,25.4375,-8.5,"(0.0, 0.0, 0.0, 0.0, 0.0, 0.0, 0.0, 0.0, 0.0)",0.5595703125,0.76611328125,0.41552734375,"(0.0, 0.0, 0.0, 0.0, 0.0, 0.0, 0.0, 0.0, 0.0)"
2022/11/28/23:04:02.264392,5552,1669698242,263979673,RU_myo,0.6259791031689083,0.14282284530179848,-0.5783104526643336,-0.5032979411789018,"(0.0, 0.0, 0.0, 0.0, 0.0, 0.0, 0.0, 0.0, 0.0)",-6.8125,32.75,-8.75,"(0.0, 0.0, 0.0, 0.0, 0.0, 0.0, 0.0, 0.0, 0.0)",0.5947265625,0.7490234375,0.38134765625,"(0.0, 0.0, 0.0, 0.0, 0.0, 0.0, 0.0, 0.0, 0.0)"
2022/11/28/23:04:02.285407,5553,1669698242,285032033,RU_myo,0.6299958965290945,0.14465125700193315,-0.5717081537287375,-0.5053028509362888,"(0.0, 0.0, 0.0, 0.0, 0.0, 0.0, 0.0, 0.0, 0.0)",-18.875,39.5,-11.1875,"(0.0, 0.0, 0.0, 0.0, 0.0, 0.0, 0.0, 0.0, 0.0)",0.6494140625,0.76171875,0.36865234375,"(0.0, 0.0, 0.0, 0.0, 0.0, 0.0, 0.0, 0.0, 0.0)"
2022/11/28/23:04:02.307769,5554,1669698242,307417154,RU_myo,0.6346433690954105,0.1461181213324113,-0.5629270814740307,-0.5089109839889914,"(0.0, 0.0, 0.0, 0.0, 0.0, 0.0, 0.0, 0.0, 0.0)",-32.5,47.0,-14.25,"(0.0, 0.0, 0.0, 0.0, 0.0, 0.0, 0.0, 0.0, 0.0)",0.63134765625,0.7802734375,0.39111328125,"(0.0, 0.0, 0.0, 0.0, 0.0, 0.0, 0.0, 0.0, 0.0)"
2022/11/28/23:04:02.324263,5555,1669698242,323984622,RU_myo,0.6396606977501129,0.14679236432147152,-0.5521346060923207,-0.5142310475710593,"(0.0, 0.0, 0.0, 0.0, 0.0, 0.0, 0.0, 0.0, 0.0)",-48.5625,51.625,-16.6875,"(0.0, 0.0, 0.0, 0.0, 0.0, 0.0, 0.0, 0.0, 0.0)",0.59716796875,0.79931640625,0.4052734375,"(0.0, 0.0, 0.0, 0.0, 0.0, 0.0, 0.0, 0.0, 0.0)"
2022/11/28/23:04:02.345685,5556,1669698242,345109462,RU_myo,0.6447819721386596,0.14685208490776364,-0.5395562886885413,-0.5211234833509917,"(0.0, 0.0, 0.0, 0.0, 0.0, 0.0, 0.0, 0.0, 0.0)",-61.9375,55.625,-20.3125,"(0.0, 0.0, 0.0, 0.0, 0.0, 0.0, 0.0, 0.0, 0.0)",0.59375,0.837890625,0.43994140625,"(0.0, 0.0, 0.0, 0.0, 0.0, 0.0, 0.0, 0.0, 0.0)"
2022/11/28/23:04:02.367843,5557,1669698242,367453098,RU_myo,0.6499361918089573,0.1464172151516282,-0.5252465834076333,-0.5293968004273543,"(0.0, 0.0, 0.0, 0.0, 0.0, 0.0, 0.0, 0.0, 0.0)",-73.375,59.5625,-25.25,"(0.0, 0.0, 0.0, 0.0, 0.0, 0.0, 0.0, 0.0, 0.0)",0.57861328125,0.83349609375,0.46875,"(0.0, 0.0, 0.0, 0.0, 0.0, 0.0, 0.0, 0.0, 0.0)"
2022/11/28/23:04:02.384412,5558,1669698242,384062290,RU_myo,0.654661694600806,0.14495818801761276,-0.5104969619281318,-0.5383289340275135,"(0.0, 0.0, 0.0, 0.0, 0.0, 0.0, 0.0, 0.0, 0.0)",-81.75,57.875,-27.375,"(0.0, 0.0, 0.0, 0.0, 0.0, 0.0, 0.0, 0.0, 0.0)",0.544921875,0.78173828125,0.4453125,"(0.0, 0.0, 0.0, 0.0, 0.0, 0.0, 0.0, 0.0, 0.0)"
2022/11/28/23:04:02.405041,5559,1669698242,404739379,RU_myo,0.6585044260893727,0.1434317732236561,-0.4965180745423159,-0.547054886554736,"(0.0, 0.0, 0.0, 0.0, 0.0, 0.0, 0.0, 0.0, 0.0)",-80.1875,54.0,-28.75,"(0.0, 0.0, 0.0, 0.0, 0.0, 0.0, 0.0, 0.0, 0.0)",0.53125,0.7548828125,0.43701171875,"(0.0, 0.0, 0.0, 0.0, 0.0, 0.0, 0.0, 0.0, 0.0)"
2022/11/28/23:04:02.428169,5560,1669698242,427677392,RU_myo,0.6616202927139961,0.14233381204880435,-0.4845575188059424,-0.554259582853856,"(0.0, 0.0, 0.0, 0.0, 0.0, 0.0, 0.0, 0.0, 0.0)",-67.375,47.875,-26.4375,"(0.0, 0.0, 0.0, 0.0, 0.0, 0.0, 0.0, 0.0, 0.0)",0.51025390625,0.7001953125,0.42138671875,"(0.0, 0.0, 0.0, 0.0, 0.0, 0.0, 0.0, 0.0, 0.0)"
2022/11/28/23:04:02.450644,5561,1669698242,450318098,RU_myo,0.6643050629870043,0.14263882140762854,-0.47552377303672827,-0.5587755284496531,"(0.0, 0.0, 0.0, 0.0, 0.0, 0.0, 0.0, 0.0, 0.0)",-43.8125,43.4375,-21.9375,"(0.0, 0.0, 0.0, 0.0, 0.0, 0.0, 0.0, 0.0, 0.0)",0.52783203125,0.6591796875,0.431640625,"(0.0, 0.0, 0.0, 0.0, 0.0, 0.0, 0.0, 0.0, 0.0)"
2022/11/28/23:04:02.465371,5562,1669698242,465025186,RU_myo,0.6664930189102232,0.1450171623562903,-0.46941371872147675,-0.5607208209458077,"(0.0, 0.0, 0.0, 0.0, 0.0, 0.0, 0.0, 0.0, 0.0)",-19.25,39.75,-16.8125,"(0.0, 0.0, 0.0, 0.0, 0.0, 0.0, 0.0, 0.0, 0.0)",0.5,0.6240234375,0.4130859375,"(0.0, 0.0, 0.0, 0.0, 0.0, 0.0, 0.0, 0.0, 0.0)"
2022/11/28/23:04:02.487894,5563,1669698242,487511873,RU_myo,0.6679047614291349,0.14886408783018001,-0.46655067133001066,-0.5604223265505178,"(0.0, 0.0, 0.0, 0.0, 0.0, 0.0, 0.0, 0.0, 0.0)",2.875,31.5,-11.0625,"(0.0, 0.0, 0.0, 0.0, 0.0, 0.0, 0.0, 0.0, 0.0)",0.46435546875,0.60693359375,0.39599609375,"(0.0, 0.0, 0.0, 0.0, 0.0, 0.0, 0.0, 0.0, 0.0)"
2022/11/28/23:04:02.510531,5564,1669698242,510174274,RU_myo,0.6686806647883285,0.15294941091270092,-0.4664773932983931,-0.5584545530132535,"(0.0, 0.0, 0.0, 0.0, 0.0, 0.0, 0.0, 0.0, 0.0)",16.75,21.5625,-4.4375,"(0.0, 0.0, 0.0, 0.0, 0.0, 0.0, 0.0, 0.0, 0.0)",0.462890625,0.63525390625,0.3955078125,"(0.0, 0.0, 0.0, 0.0, 0.0, 0.0, 0.0, 0.0, 0.0)"
2022/11/28/23:04:02.525615,5565,1669698242,525082349,RU_myo,0.6690078479914966,0.15667759746320334,-0.4675913806644335,-0.5560925557020825,"(0.0, 0.0, 0.0, 0.0, 0.0, 0.0, 0.0, 0.0, 0.0)",21.875,13.4375,-0.6875,"(0.0, 0.0, 0.0, 0.0, 0.0, 0.0, 0.0, 0.0, 0.0)",0.45703125,0.6796875,0.43408203125,"(0.0, 0.0, 0.0, 0.0, 0.0, 0.0, 0.0, 0.0, 0.0)"
2022/11/28/23:04:02.547964,5566,1669698242,547504425,RU_myo,0.6691854270874943,0.15960597335222526,-0.46838097113001015,-0.5543789888941728,"(0.0, 0.0, 0.0, 0.0, 0.0, 0.0, 0.0, 0.0, 0.0)",16.3125,9.375,0.0,"(0.0, 0.0, 0.0, 0.0, 0.0, 0.0, 0.0, 0.0, 0.0)",0.43115234375,0.70263671875,0.45654296875,"(0.0, 0.0, 0.0, 0.0, 0.0, 0.0, 0.0, 0.0, 0.0)"
2022/11/28/23:04:02.570309,5567,1669698242,569896459,RU_myo,0.6697356683034141,0.1603386130167747,-0.46813748071513595,-0.5537083735394671,"(0.0, 0.0, 0.0, 0.0, 0.0, 0.0, 0.0, 0.0, 0.0)",2.125,6.25,1.4375,"(0.0, 0.0, 0.0, 0.0, 0.0, 0.0, 0.0, 0.0, 0.0)",0.43505859375,0.697265625,0.4609375,"(0.0, 0.0, 0.0, 0.0, 0.0, 0.0, 0.0, 0.0, 0.0)"
2022/11/28/23:04:02.585546,5568,1669698242,585129022,RU_myo,0.6704730771775735,0.15887495857016148,-0.46728647053905353,-0.5539566361823994,"(0.0, 0.0, 0.0, 0.0, 0.0, 0.0, 0.0, 0.0, 0.0)",-11.0,1.875,3.625,"(0.0, 0.0, 0.0, 0.0, 0.0, 0.0, 0.0, 0.0, 0.0)",0.4609375,0.71728515625,0.47998046875,"(0.0, 0.0, 0.0, 0.0, 0.0, 0.0, 0.0, 0.0, 0.0)"
2022/11/28/23:04:02.607697,5569,1669698242,607367992,RU_myo,0.6709007318613117,0.15637260507902845,-0.46606604698808013,-0.5551776798590331,"(0.0, 0.0, 0.0, 0.0, 0.0, 0.0, 0.0, 0.0, 0.0)",-17.25,-3.3125,2.1875,"(0.0, 0.0, 0.0, 0.0, 0.0, 0.0, 0.0, 0.0, 0.0)",0.43115234375,0.6982421875,0.4931640625,"(0.0, 0.0, 0.0, 0.0, 0.0, 0.0, 0.0, 0.0, 0.0)"
2022/11/28/23:04:02.624557,5570,1669698242,624229431,RU_myo,0.6714570765864006,0.1531393332565475,-0.46472813209061486,-0.5565262816393783,"(0.0, 0.0, 0.0, 0.0, 0.0, 0.0, 0.0, 0.0, 0.0)",-18.8125,-5.125,2.625,"(0.0, 0.0, 0.0, 0.0, 0.0, 0.0, 0.0, 0.0, 0.0)",0.45166015625,0.67333984375,0.5224609375,"(0.0, 0.0, 0.0, 0.0, 0.0, 0.0, 0.0, 0.0, 0.0)"
2022/11/28/23:04:02.645794,5571,1669698242,645278692,RU_myo,0.6721815254770442,0.15057403281139273,-0.46423433058915814,-0.5567638132572049,"(0.0, 0.0, 0.0, 0.0, 0.0, 0.0, 0.0, 0.0, 0.0)",-10.3125,-4.3125,5.3125,"(0.0, 0.0, 0.0, 0.0, 0.0, 0.0, 0.0, 0.0, 0.0)",0.48388671875,0.6845703125,0.54736328125,"(0.0, 0.0, 0.0, 0.0, 0.0, 0.0, 0.0, 0.0, 0.0)"
2022/11/28/23:04:02.667845,5572,1669698242,667471885,RU_myo,0.6727757730053858,0.14904458293378864,-0.4648335559474751,-0.555957045841065,"(0.0, 0.0, 0.0, 0.0, 0.0, 0.0, 0.0, 0.0, 0.0)",-0.125,-4.75,7.25,"(0.0, 0.0, 0.0, 0.0, 0.0, 0.0, 0.0, 0.0, 0.0)",0.48486328125,0.69287109375,0.5498046875,"(0.0, 0.0, 0.0, 0.0, 0.0, 0.0, 0.0, 0.0, 0.0)"
2022/11/28/23:04:02.684893,5573,1669698242,684396505,RU_myo,0.6733443212643625,0.14825538037990724,-0.4657013389455299,-0.55475222407286,"(0.0, 0.0, 0.0, 0.0, 0.0, 0.0, 0.0, 0.0, 0.0)",4.5625,-3.875,8.125,"(0.0, 0.0, 0.0, 0.0, 0.0, 0.0, 0.0, 0.0, 0.0)",0.48388671875,0.7109375,0.55810546875,"(0.0, 0.0, 0.0, 0.0, 0.0, 0.0, 0.0, 0.0, 0.0)"
2022/11/28/23:04:02.705363,5574,1669698242,704937696,RU_myo,0.6736341096439343,0.14861819851254687,-0.46685034924947477,-0.5533357649752567,"(0.0, 0.0, 0.0, 0.0, 0.0, 0.0, 0.0, 0.0, 0.0)",9.875,-2.25,6.4375,"(0.0, 0.0, 0.0, 0.0, 0.0, 0.0, 0.0, 0.0, 0.0)",0.48681640625,0.7529296875,0.57763671875,"(0.0, 0.0, 0.0, 0.0, 0.0, 0.0, 0.0, 0.0, 0.0)"
2022/11/28/23:04:02.727919,5575,1669698242,727519512,RU_myo,0.6736964074133033,0.14953399149869478,-0.467766739120815,-0.5522381857470164,"(0.0, 0.0, 0.0, 0.0, 0.0, 0.0, 0.0, 0.0, 0.0)",10.25,-0.6875,3.75,"(0.0, 0.0, 0.0, 0.0, 0.0, 0.0, 0.0, 0.0, 0.0)",0.48779296875,0.78076171875,0.57666015625,"(0.0, 0.0, 0.0, 0.0, 0.0, 0.0, 0.0, 0.0, 0.0)"
2022/11/28/23:04:02.751056,5576,1669698242,750490188,RU_myo,0.6737732305888845,0.14965956711694398,-0.4679608079468228,-0.55194594838439,"(0.0, 0.0, 0.0, 0.0, 0.0, 0.0, 0.0, 0.0, 0.0)",2.75,-0.75,1.6875,"(0.0, 0.0, 0.0, 0.0, 0.0, 0.0, 0.0, 0.0, 0.0)",0.4765625,0.751953125,0.556640625,"(0.0, 0.0, 0.0, 0.0, 0.0, 0.0, 0.0, 0.0, 0.0)"
2022/11/28/23:04:02.765593,5577,1669698242,765115499,RU_myo,0.6737489710434412,0.14953211151883605,-0.46769982472197574,-0.5522312428662973,"(0.0, 0.0, 0.0, 0.0, 0.0, 0.0, 0.0, 0.0, 0.0)",-1.1875,-0.875,-0.75,"(0.0, 0.0, 0.0, 0.0, 0.0, 0.0, 0.0, 0.0, 0.0)",0.4658203125,0.73193359375,0.552734375,"(0.0, 0.0, 0.0, 0.0, 0.0, 0.0, 0.0, 0.0, 0.0)"
2022/11/28/23:04:02.787741,5578,1669698242,787426710,RU_myo,0.6738794010609295,0.14959500153974623,-0.4673394234148662,-0.5523601648040406,"(0.0, 0.0, 0.0, 0.0, 0.0, 0.0, 0.0, 0.0, 0.0)",1.375,0.625,-1.6875,"(0.0, 0.0, 0.0, 0.0, 0.0, 0.0, 0.0, 0.0, 0.0)",0.48095703125,0.71630859375,0.5712890625,"(0.0, 0.0, 0.0, 0.0, 0.0, 0.0, 0.0, 0.0, 0.0)"
2022/11/28/23:04:02.811353,5579,1669698242,810581207,RU_myo,0.674124197350012,0.14996135381520864,-0.46715677741213146,-0.5521165676078053,"(0.0, 0.0, 0.0, 0.0, 0.0, 0.0, 0.0, 0.0, 0.0)",4.375,2.1875,-1.0,"(0.0, 0.0, 0.0, 0.0, 0.0, 0.0, 0.0, 0.0, 0.0)",0.486328125,0.69921875,0.56298828125,"(0.0, 0.0, 0.0, 0.0, 0.0, 0.0, 0.0, 0.0, 0.0)"
2022/11/28/23:04:02.825739,5580,1669698242,825131893,RU_myo,0.6744386097239325,0.15045168986149263,-0.46704110783778563,-0.5516968862710069,"(0.0, 0.0, 0.0, 0.0, 0.0, 0.0, 0.0, 0.0, 0.0)",4.75,2.5625,-0.5625,"(0.0, 0.0, 0.0, 0.0, 0.0, 0.0, 0.0, 0.0, 0.0)",0.4775390625,0.6904296875,0.54833984375,"(0.0, 0.0, 0.0, 0.0, 0.0, 0.0, 0.0, 0.0, 0.0)"
2022/11/28/23:04:02.847987,5581,1669698242,847523212,RU_myo,0.6746195023999446,0.15106154604540514,-0.46716164583092157,-0.5512067969034561,"(0.0, 0.0, 0.0, 0.0, 0.0, 0.0, 0.0, 0.0, 0.0)",5.6875,1.8125,-0.125,"(0.0, 0.0, 0.0, 0.0, 0.0, 0.0, 0.0, 0.0, 0.0)",0.46923828125,0.6962890625,0.53759765625,"(0.0, 0.0, 0.0, 0.0, 0.0, 0.0, 0.0, 0.0, 0.0)"
2022/11/28/23:04:02.870974,5582,1669698242,870568513,RU_myo,0.6747868185542902,0.15172938051066984,-0.4671507153775812,-0.5508276987565548,"(0.0, 0.0, 0.0, 0.0, 0.0, 0.0, 0.0, 0.0, 0.0)",4.9375,2.1875,-0.1875,"(0.0, 0.0, 0.0, 0.0, 0.0, 0.0, 0.0, 0.0, 0.0)",0.46484375,0.71435546875,0.5439453125,"(0.0, 0.0, 0.0, 0.0, 0.0, 0.0, 0.0, 0.0, 0.0)"
2022/11/28/23:04:02.885577,5583,1669698242,885031700,RU_myo,0.6748058074200028,0.152466073347971,-0.4672248965086941,-0.5505380230579257,"(0.0, 0.0, 0.0, 0.0, 0.0, 0.0, 0.0, 0.0, 0.0)",4.8125,1.75,-0.25,"(0.0, 0.0, 0.0, 0.0, 0.0, 0.0, 0.0, 0.0, 0.0)",0.46240234375,0.72802734375,0.53955078125,"(0.0, 0.0, 0.0, 0.0, 0.0, 0.0, 0.0, 0.0, 0.0)"
2022/11/28/23:04:02.908039,5584,1669698242,907560586,RU_myo,0.6748390474333997,0.1524597938399776,-0.4672056532606199,-0.5505153484534019,"(0.0, 0.0, 0.0, 0.0, 0.0, 0.0, 0.0, 0.0, 0.0)",0.6875,0.3125,-0.25,"(0.0, 0.0, 0.0, 0.0, 0.0, 0.0, 0.0, 0.0, 0.0)",0.46826171875,0.72607421875,0.52685546875,"(0.0, 0.0, 0.0, 0.0, 0.0, 0.0, 0.0, 0.0, 0.0)"
2022/11/28/23:04:02.931169,5585,1669698242,930540561,RU_myo,0.674996345032425,0.1518573927516659,-0.46692486115363513,-0.5507271924430391,"(0.0, 0.0, 0.0, 0.0, 0.0, 0.0, 0.0, 0.0, 0.0)",-3.1875,-0.4375,-0.0625,"(0.0, 0.0, 0.0, 0.0, 0.0, 0.0, 0.0, 0.0, 0.0)",0.46875,0.7021484375,0.5185546875,"(0.0, 0.0, 0.0, 0.0, 0.0, 0.0, 0.0, 0.0, 0.0)"
2022/11/28/23:04:02.945533,5586,1669698242,945046186,RU_myo,0.6752422395667711,0.1513694977967633,-0.4664377831301876,-0.5509727647626541,"(0.0, 0.0, 0.0, 0.0, 0.0, 0.0, 0.0, 0.0, 0.0)",-2.4375,0.25,-0.1875,"(0.0, 0.0, 0.0, 0.0, 0.0, 0.0, 0.0, 0.0, 0.0)",0.458984375,0.68017578125,0.53173828125,"(0.0, 0.0, 0.0, 0.0, 0.0, 0.0, 0.0, 0.0, 0.0)"
2022/11/28/23:04:02.967836,5587,1669698242,967506647,RU_myo,0.6755900984679041,0.15124331592767787,-0.46642510908769746,-0.5505915871604448,"(0.0, 0.0, 0.0, 0.0, 0.0, 0.0, 0.0, 0.0, 0.0)",2.125,0.6875,1.25,"(0.0, 0.0, 0.0, 0.0, 0.0, 0.0, 0.0, 0.0, 0.0)",0.47412109375,0.68701171875,0.53759765625,"(0.0, 0.0, 0.0, 0.0, 0.0, 0.0, 0.0, 0.0, 0.0)"
2022/11/28/23:04:02.990197,5588,1669698242,989900588,RU_myo,0.6759037168877818,0.1513672763122358,-0.46685818407753693,-0.5498050100889597,"(0.0, 0.0, 0.0, 0.0, 0.0, 0.0, 0.0, 0.0, 0.0)",5.5,0.125,2.625,"(0.0, 0.0, 0.0, 0.0, 0.0, 0.0, 0.0, 0.0, 0.0)",0.48193359375,0.7080078125,0.5439453125,"(0.0, 0.0, 0.0, 0.0, 0.0, 0.0, 0.0, 0.0, 0.0)"
2022/11/28/23:04:03.005334,5589,1669698243,4916429,RU_myo,0.6763056232022133,0.15148367085893813,-0.4672679226817205,-0.548929949921551,"(0.0, 0.0, 0.0, 0.0, 0.0, 0.0, 0.0, 0.0, 0.0)",4.9375,0.25,3.75,"(0.0, 0.0, 0.0, 0.0, 0.0, 0.0, 0.0, 0.0, 0.0)",0.4794921875,0.70947265625,0.53857421875,"(0.0, 0.0, 0.0, 0.0, 0.0, 0.0, 0.0, 0.0, 0.0)"
2022/11/28/23:04:03.027861,5590,1669698243,27465820,RU_myo,0.676699370096011,0.1516729444113455,-0.467470052815491,-0.5482198739246298,"(0.0, 0.0, 0.0, 0.0, 0.0, 0.0, 0.0, 0.0, 0.0)",4.5,0.375,3.6875,"(0.0, 0.0, 0.0, 0.0, 0.0, 0.0, 0.0, 0.0, 0.0)",0.46435546875,0.71728515625,0.546875,"(0.0, 0.0, 0.0, 0.0, 0.0, 0.0, 0.0, 0.0, 0.0)"
2022/11/28/23:04:03.050454,5591,1669698243,50101995,RU_myo,0.6772305870423174,0.1519740592767998,-0.4673354907158458,-0.5475948834664449,"(0.0, 0.0, 0.0, 0.0, 0.0, 0.0, 0.0, 0.0, 0.0)",4.125,2.0625,3.5,"(0.0, 0.0, 0.0, 0.0, 0.0, 0.0, 0.0, 0.0, 0.0)",0.47412109375,0.734375,0.572265625,"(0.0, 0.0, 0.0, 0.0, 0.0, 0.0, 0.0, 0.0, 0.0)"
2022/11/28/23:04:03.065570,5592,1669698243,65044403,RU_myo,0.6782732066775929,0.15234139511088562,-0.46648448831430245,-0.546927580764682,"(0.0, 0.0, 0.0, 0.0, 0.0, 0.0, 0.0, 0.0, 0.0)",3.4375,5.6875,3.3125,"(0.0, 0.0, 0.0, 0.0, 0.0, 0.0, 0.0, 0.0, 0.0)",0.490234375,0.7373046875,0.60595703125,"(0.0, 0.0, 0.0, 0.0, 0.0, 0.0, 0.0, 0.0, 0.0)"
2022/11/28/23:04:03.087840,5593,1669698243,87431907,RU_myo,0.6796817738791673,0.15301384762168393,-0.4647787992178393,-0.546443150281985,"(0.0, 0.0, 0.0, 0.0, 0.0, 0.0, 0.0, 0.0, 0.0)",1.625,9.5,3.625,"(0.0, 0.0, 0.0, 0.0, 0.0, 0.0, 0.0, 0.0, 0.0)",0.4609375,0.73046875,0.6171875,"(0.0, 0.0, 0.0, 0.0, 0.0, 0.0, 0.0, 0.0, 0.0)"
2022/11/28/23:04:03.110375,5594,1669698243,110030174,RU_myo,0.6813498893402361,0.1538118535463043,-0.46204592513711257,-0.5464593352381201,"(0.0, 0.0, 0.0, 0.0, 0.0, 0.0, 0.0, 0.0, 0.0)",-1.25,13.375,1.1875,"(0.0, 0.0, 0.0, 0.0, 0.0, 0.0, 0.0, 0.0, 0.0)",0.46240234375,0.73388671875,0.6552734375,"(0.0, 0.0, 0.0, 0.0, 0.0, 0.0, 0.0, 0.0, 0.0)"
2022/11/28/23:04:03.125779,5595,1669698243,125217437,RU_myo,0.6835877936151501,0.1549058768031474,-0.4579427870977206,-0.5468092002676902,"(0.0, 0.0, 0.0, 0.0, 0.0, 0.0, 0.0, 0.0, 0.0)",-3.25,19.75,-0.6875,"(0.0, 0.0, 0.0, 0.0, 0.0, 0.0, 0.0, 0.0, 0.0)",0.4814453125,0.75439453125,0.72509765625,"(0.0, 0.0, 0.0, 0.0, 0.0, 0.0, 0.0, 0.0, 0.0)"
2022/11/28/23:04:03.147934,5596,1669698243,147538185,RU_myo,0.6871948370187515,0.15661621385470434,-0.4518432701349869,-0.546875010186341,"(0.0, 0.0, 0.0, 0.0, 0.0, 0.0, 0.0, 0.0, 0.0)",-5.0625,32.75,0.0625,"(0.0, 0.0, 0.0, 0.0, 0.0, 0.0, 0.0, 0.0, 0.0)",0.4951171875,0.74609375,0.787109375,"(0.0, 0.0, 0.0, 0.0, 0.0, 0.0, 0.0, 0.0, 0.0)"
2022/11/28/23:04:03.170219,5597,1669698243,169931888,RU_myo,0.6921480085136106,0.15912079878262633,-0.4432432837588924,-0.5469434130767605,"(0.0, 0.0, 0.0, 0.0, 0.0, 0.0, 0.0, 0.0, 0.0)",-10.0,47.5625,0.0625,"(0.0, 0.0, 0.0, 0.0, 0.0, 0.0, 0.0, 0.0, 0.0)",0.47119140625,0.73681640625,0.818359375,"(0.0, 0.0, 0.0, 0.0, 0.0, 0.0, 0.0, 0.0, 0.0)"
2022/11/28/23:04:03.185422,5598,1669698243,185044288,RU_myo,0.6979407297741697,0.16253748696008866,-0.4328025985858012,-0.5469389487981052,"(0.0, 0.0, 0.0, 0.0, 0.0, 0.0, 0.0, 0.0, 0.0)",-14.6875,59.75,1.0625,"(0.0, 0.0, 0.0, 0.0, 0.0, 0.0, 0.0, 0.0, 0.0)",0.4453125,0.7744140625,0.82958984375,"(0.0, 0.0, 0.0, 0.0, 0.0, 0.0, 0.0, 0.0, 0.0)"
2022/11/28/23:04:03.207861,5599,1669698243,207491159,RU_myo,0.7048066299953253,0.1649105918122072,-0.4206379714173694,-0.5469148087450736,"(0.0, 0.0, 0.0, 0.0, 0.0, 0.0, 0.0, 0.0, 0.0)",-27.1875,68.3125,4.8125,"(0.0, 0.0, 0.0, 0.0, 0.0, 0.0, 0.0, 0.0, 0.0)",0.43359375,0.74365234375,0.791015625,"(0.0, 0.0, 0.0, 0.0, 0.0, 0.0, 0.0, 0.0, 0.0)"
2022/11/28/23:04:03.230391,5600,1669698243,230022668,RU_myo,0.7139783461623534,0.1639989584662544,-0.405145175399701,-0.546988710746026,"(0.0, 0.0, 0.0, 0.0, 0.0, 0.0, 0.0, 0.0, 0.0)",-52.75,80.375,11.5625,"(0.0, 0.0, 0.0, 0.0, 0.0, 0.0, 0.0, 0.0, 0.0)",0.46240234375,0.6357421875,0.75634765625,"(0.0, 0.0, 0.0, 0.0, 0.0, 0.0, 0.0, 0.0, 0.0)"
2022/11/28/23:04:03.245320,5601,1669698243,244945049,RU_myo,0.7250371248255326,0.16229259322426898,-0.3872683354674639,-0.5458988167724188,"(0.0, 0.0, 0.0, 0.0, 0.0, 0.0, 0.0, 0.0, 0.0)",-59.375,94.375,19.3125,"(0.0, 0.0, 0.0, 0.0, 0.0, 0.0, 0.0, 0.0, 0.0)",0.4560546875,0.529296875,0.7763671875,"(0.0, 0.0, 0.0, 0.0, 0.0, 0.0, 0.0, 0.0, 0.0)"
2022/11/28/23:04:03.268405,5602,1669698243,267950296,RU_myo,0.7360116597087429,0.1647313599431045,-0.37139322906772543,-0.5414956003761479,"(0.0, 0.0, 0.0, 0.0, 0.0, 0.0, 0.0, 0.0, 0.0)",-36.625,102.5625,30.1875,"(0.0, 0.0, 0.0, 0.0, 0.0, 0.0, 0.0, 0.0, 0.0)",0.4794921875,0.49169921875,0.79150390625,"(0.0, 0.0, 0.0, 0.0, 0.0, 0.0, 0.0, 0.0, 0.0)"
2022/11/28/23:04:03.290390,5603,1669698243,290022134,RU_myo,0.74678296805389,0.17187910404901954,-0.35804077569302156,-0.5334600033339598,"(0.0, 0.0, 0.0, 0.0, 0.0, 0.0, 0.0, 0.0, 0.0)",-1.75,109.9375,36.875,"(0.0, 0.0, 0.0, 0.0, 0.0, 0.0, 0.0, 0.0, 0.0)",0.48583984375,0.49462890625,0.79150390625,"(0.0, 0.0, 0.0, 0.0, 0.0, 0.0, 0.0, 0.0, 0.0)"
2022/11/28/23:04:03.305744,5604,1669698243,305204391,RU_myo,0.7573241369336888,0.181457499927777,-0.3472289663939197,-0.5224608810567679,"(0.0, 0.0, 0.0, 0.0, 0.0, 0.0, 0.0, 0.0, 0.0)",23.5,108.5,47.0625,"(0.0, 0.0, 0.0, 0.0, 0.0, 0.0, 0.0, 0.0, 0.0)",0.42138671875,0.4384765625,0.77490234375,"(0.0, 0.0, 0.0, 0.0, 0.0, 0.0, 0.0, 0.0, 0.0)"
2022/11/28/23:04:03.328738,5605,1669698243,328214883,RU_myo,0.7671660988911505,0.19385150211459096,-0.33948427416919236,-0.5085550112149786,"(0.0, 0.0, 0.0, 0.0, 0.0, 0.0, 0.0, 0.0, 0.0)",50.25,105.9375,54.6875,"(0.0, 0.0, 0.0, 0.0, 0.0, 0.0, 0.0, 0.0, 0.0)",0.427734375,0.48486328125,0.7294921875,"(0.0, 0.0, 0.0, 0.0, 0.0, 0.0, 0.0, 0.0, 0.0)"
2022/11/28/23:04:03.350194,5606,1669698243,349903821,RU_myo,0.7763001327869983,0.2090437891969077,-0.33306626500657677,-0.492671960991953,"(0.0, 0.0, 0.0, 0.0, 0.0, 0.0, 0.0, 0.0, 0.0)",70.0625,110.375,57.0,"(0.0, 0.0, 0.0, 0.0, 0.0, 0.0, 0.0, 0.0, 0.0)",0.49267578125,0.51318359375,0.65234375,"(0.0, 0.0, 0.0, 0.0, 0.0, 0.0, 0.0, 0.0, 0.0)"
2022/11/28/23:04:03.365477,5607,1669698243,364962339,RU_myo,0.7839314043381849,0.22680544211466014,-0.32775705709249864,-0.4760106682056605,"(0.0, 0.0, 0.0, 0.0, 0.0, 0.0, 0.0, 0.0, 0.0)",85.9375,110.75,53.1875,"(0.0, 0.0, 0.0, 0.0, 0.0, 0.0, 0.0, 0.0, 0.0)",0.4677734375,0.59765625,0.57177734375,"(0.0, 0.0, 0.0, 0.0, 0.0, 0.0, 0.0, 0.0, 0.0)"
2022/11/28/23:04:03.388422,5608,1669698243,387605905,RU_myo,0.7907254855953835,0.24329075921136228,-0.3234314433168612,-0.45929828476304596,"(0.0, 0.0, 0.0, 0.0, 0.0, 0.0, 0.0, 0.0, 0.0)",83.5625,101.5,55.0,"(0.0, 0.0, 0.0, 0.0, 0.0, 0.0, 0.0, 0.0, 0.0)",0.43505859375,0.60693359375,0.49658203125,"(0.0, 0.0, 0.0, 0.0, 0.0, 0.0, 0.0, 0.0, 0.0)"
2022/11/28/23:04:03.410346,5609,1669698243,409977436,RU_myo,0.7959303171045503,0.25892150346299864,-0.3225837213111617,-0.4420343064778492,"(0.0, 0.0, 0.0, 0.0, 0.0, 0.0, 0.0, 0.0, 0.0)",81.375,88.125,57.0,"(0.0, 0.0, 0.0, 0.0, 0.0, 0.0, 0.0, 0.0, 0.0)",0.37841796875,0.68701171875,0.40869140625,"(0.0, 0.0, 0.0, 0.0, 0.0, 0.0, 0.0, 0.0, 0.0)"
2022/11/28/23:04:03.425621,5610,1669698243,425134897,RU_myo,0.8002367779191589,0.2736832973983303,-0.32208446930664336,-0.4254176143769764,"(0.0, 0.0, 0.0, 0.0, 0.0, 0.0, 0.0, 0.0, 0.0)",78.0625,80.4375,55.375,"(0.0, 0.0, 0.0, 0.0, 0.0, 0.0, 0.0, 0.0, 0.0)",0.3515625,0.69970703125,0.384765625,"(0.0, 0.0, 0.0, 0.0, 0.0, 0.0, 0.0, 0.0, 0.0)"
2022/11/28/23:04:03.447768,5611,1669698243,447413921,RU_myo,0.8034205905498971,0.2872977831587302,-0.3220884643570468,-0.41016382044331146,"(0.0, 0.0, 0.0, 0.0, 0.0, 0.0, 0.0, 0.0, 0.0)",71.8125,71.125,49.25,"(0.0, 0.0, 0.0, 0.0, 0.0, 0.0, 0.0, 0.0, 0.0)",0.35546875,0.7294921875,0.3662109375,"(0.0, 0.0, 0.0, 0.0, 0.0, 0.0, 0.0, 0.0, 0.0)"
2022/11/28/23:04:03.470233,5612,1669698243,469839572,RU_myo,0.8056792496719482,0.2987116854465541,-0.32288206293671257,-0.3967359941566411,"(0.0, 0.0, 0.0, 0.0, 0.0, 0.0, 0.0, 0.0, 0.0)",58.4375,58.3125,44.1875,"(0.0, 0.0, 0.0, 0.0, 0.0, 0.0, 0.0, 0.0, 0.0)",0.369140625,0.80517578125,0.3427734375,"(0.0, 0.0, 0.0, 0.0, 0.0, 0.0, 0.0, 0.0, 0.0)"
2022/11/28/23:04:03.492862,5613,1669698243,492544651,RU_myo,0.8074391444189104,0.307130831863025,-0.32397664060590947,-0.3856835704575626,"(0.0, 0.0, 0.0, 0.0, 0.0, 0.0, 0.0, 0.0, 0.0)",40.75,47.0,37.0625,"(0.0, 0.0, 0.0, 0.0, 0.0, 0.0, 0.0, 0.0, 0.0)",0.41162109375,0.84375,0.33349609375,"(0.0, 0.0, 0.0, 0.0, 0.0, 0.0, 0.0, 0.0, 0.0)"
2022/11/28/23:04:03.507820,5614,1669698243,507438659,RU_myo,0.8092231826429147,0.31238529557749567,-0.32483676105186243,-0.37690097698144504,"(0.0, 0.0, 0.0, 0.0, 0.0, 0.0, 0.0, 0.0, 0.0)",26.0,36.6875,29.25,"(0.0, 0.0, 0.0, 0.0, 0.0, 0.0, 0.0, 0.0, 0.0)",0.43408203125,0.78173828125,0.3720703125,"(0.0, 0.0, 0.0, 0.0, 0.0, 0.0, 0.0, 0.0, 0.0)"
2022/11/28/23:04:03.530318,5615,1669698243,529934167,RU_myo,0.8104152615831827,0.31628045530381477,-0.3261069997468704,-0.36992972589664636,"(0.0, 0.0, 0.0, 0.0, 0.0, 0.0, 0.0, 0.0, 0.0)",21.375,25.875,24.0,"(0.0, 0.0, 0.0, 0.0, 0.0, 0.0, 0.0, 0.0, 0.0)",0.41650390625,0.7734375,0.4091796875,"(0.0, 0.0, 0.0, 0.0, 0.0, 0.0, 0.0, 0.0, 0.0)"
2022/11/28/23:04:03.547422,5616,1669698243,547056674,RU_myo,0.8108143932687627,0.319711366451504,-0.3287448300320352,-0.3637189829485514,"(0.0, 0.0, 0.0, 0.0, 0.0, 0.0, 0.0, 0.0, 0.0)",28.5,13.4375,21.875,"(0.0, 0.0, 0.0, 0.0, 0.0, 0.0, 0.0, 0.0, 0.0)",0.423828125,0.7763671875,0.52197265625,"(0.0, 0.0, 0.0, 0.0, 0.0, 0.0, 0.0, 0.0, 0.0)"
2022/11/28/23:04:03.567913,5617,1669698243,567496538,RU_myo,0.8100618317651849,0.32415901058656543,-0.3323987896167267,-0.35809469311078507,"(0.0, 0.0, 0.0, 0.0, 0.0, 0.0, 0.0, 0.0, 0.0)",38.125,3.8125,20.25,"(0.0, 0.0, 0.0, 0.0, 0.0, 0.0, 0.0, 0.0, 0.0)",0.369140625,0.80224609375,0.55517578125,"(0.0, 0.0, 0.0, 0.0, 0.0, 0.0, 0.0, 0.0, 0.0)"
2022/11/28/23:04:03.590276,5618,1669698243,590007781,RU_myo,0.8097820753639295,0.32642756757716856,-0.33521694112449696,-0.35401643454517157,"(0.0, 0.0, 0.0, 0.0, 0.0, 0.0, 0.0, 0.0, 0.0)",21.0,1.0625,18.1875,"(0.0, 0.0, 0.0, 0.0, 0.0, 0.0, 0.0, 0.0, 0.0)",0.357421875,0.822265625,0.53955078125,"(0.0, 0.0, 0.0, 0.0, 0.0, 0.0, 0.0, 0.0, 0.0)"
2022/11/28/23:04:03.607039,5619,1669698243,606633186,RU_myo,0.8104200602643312,0.3258647915161368,-0.33648484653089755,-0.35186561586262005,"(0.0, 0.0, 0.0, 0.0, 0.0, 0.0, 0.0, 0.0, 0.0)",1.1875,-0.5625,13.6875,"(0.0, 0.0, 0.0, 0.0, 0.0, 0.0, 0.0, 0.0, 0.0)",0.3505859375,0.80615234375,0.56201171875,"(0.0, 0.0, 0.0, 0.0, 0.0, 0.0, 0.0, 0.0, 0.0)"
2022/11/28/23:04:03.627675,5620,1669698243,627363443,RU_myo,0.8117932037945227,0.32294720611103905,-0.3368026239502388,-0.351085301370383,"(0.0, 0.0, 0.0, 0.0, 0.0, 0.0, 0.0, 0.0, 0.0)",-13.0,-2.375,11.0,"(0.0, 0.0, 0.0, 0.0, 0.0, 0.0, 0.0, 0.0, 0.0)",0.35009765625,0.77490234375,0.591796875,"(0.0, 0.0, 0.0, 0.0, 0.0, 0.0, 0.0, 0.0, 0.0)"
2022/11/28/23:04:03.650885,5621,1669698243,650391340,RU_myo,0.8135998588107185,0.3189091719644414,-0.33636525295617925,-0.35101371252966557,"(0.0, 0.0, 0.0, 0.0, 0.0, 0.0, 0.0, 0.0, 0.0)",-19.1875,-2.5,8.1875,"(0.0, 0.0, 0.0, 0.0, 0.0, 0.0, 0.0, 0.0, 0.0)",0.35986328125,0.7216796875,0.6162109375,"(0.0, 0.0, 0.0, 0.0, 0.0, 0.0, 0.0, 0.0, 0.0)"
2022/11/28/23:04:03.667424,5622,1669698243,667078495,RU_myo,0.8149396864218816,0.315673161936337,-0.33630300121214557,-0.35089037277107527,"(0.0, 0.0, 0.0, 0.0, 0.0, 0.0, 0.0, 0.0, 0.0)",-14.625,-2.9375,7.4375,"(0.0, 0.0, 0.0, 0.0, 0.0, 0.0, 0.0, 0.0, 0.0)",0.35693359375,0.72802734375,0.609375,"(0.0, 0.0, 0.0, 0.0, 0.0, 0.0, 0.0, 0.0, 0.0)"
2022/11/28/23:04:03.687904,5623,1669698243,687548637,RU_myo,0.8154431616068846,0.3140921040141488,-0.33649237649242175,-0.35095794754787324,"(0.0, 0.0, 0.0, 0.0, 0.0, 0.0, 0.0, 0.0, 0.0)",-8.0625,-2.8125,3.5,"(0.0, 0.0, 0.0, 0.0, 0.0, 0.0, 0.0, 0.0, 0.0)",0.36669921875,0.81982421875,0.63134765625,"(0.0, 0.0, 0.0, 0.0, 0.0, 0.0, 0.0, 0.0, 0.0)"
2022/11/28/23:04:03.710524,5624,1669698243,710124492,RU_myo,0.8160430593053987,0.31250115659264327,-0.3356946018085035,-0.3517469073131647,"(0.0, 0.0, 0.0, 0.0, 0.0, 0.0, 0.0, 0.0, 0.0)",-10.1875,-0.25,-0.8125,"(0.0, 0.0, 0.0, 0.0, 0.0, 0.0, 0.0, 0.0, 0.0)",0.35400390625,0.8056640625,0.65185546875,"(0.0, 0.0, 0.0, 0.0, 0.0, 0.0, 0.0, 0.0, 0.0)"
2022/11/28/23:04:03.727324,5625,1669698243,726965665,RU_myo,0.8174007267548549,0.3092719147600694,-0.33454102324845875,-0.35254678895878444,"(0.0, 0.0, 0.0, 0.0, 0.0, 0.0, 0.0, 0.0, 0.0)",-16.8125,-0.75,1.25,"(0.0, 0.0, 0.0, 0.0, 0.0, 0.0, 0.0, 0.0, 0.0)",0.35400390625,0.72119140625,0.66064453125,"(0.0, 0.0, 0.0, 0.0, 0.0, 0.0, 0.0, 0.0, 0.0)"
2022/11/28/23:04:03.747871,5626,1669698243,747438669,RU_myo,0.8181377472639719,0.3080529103581965,-0.3340546024153774,-0.3523656531598709,"(0.0, 0.0, 0.0, 0.0, 0.0, 0.0, 0.0, 0.0, 0.0)",-0.9375,0.0,2.0,"(0.0, 0.0, 0.0, 0.0, 0.0, 0.0, 0.0, 0.0, 0.0)",0.33642578125,0.6826171875,0.66748046875,"(0.0, 0.0, 0.0, 0.0, 0.0, 0.0, 0.0, 0.0, 0.0)"
2022/11/28/23:04:03.770345,5627,1669698243,770006418,RU_myo,0.8178861438698247,0.308904610009342,-0.33472295619269543,-0.3515689693052381,"(0.0, 0.0, 0.0, 0.0, 0.0, 0.0, 0.0, 0.0, 0.0)",11.0,-0.5625,0.8125,"(0.0, 0.0, 0.0, 0.0, 0.0, 0.0, 0.0, 0.0, 0.0)",0.35546875,0.70556640625,0.62890625,"(0.0, 0.0, 0.0, 0.0, 0.0, 0.0, 0.0, 0.0, 0.0)"
2022/11/28/23:04:03.786773,5628,1669698243,786460399,RU_myo,0.8173243303877168,0.3102426683116096,-0.3356944079704609,-0.3507701386556798,"(0.0, 0.0, 0.0, 0.0, 0.0, 0.0, 0.0, 0.0, 0.0)",10.625,-0.125,0.0,"(0.0, 0.0, 0.0, 0.0, 0.0, 0.0, 0.0, 0.0, 0.0)",0.36669921875,0.7568359375,0.58984375,"(0.0, 0.0, 0.0, 0.0, 0.0, 0.0, 0.0, 0.0, 0.0)"
2022/11/28/23:04:03.808106,5629,1669698243,807649374,RU_myo,0.8173418278319885,0.31024931004928663,-0.33570159458411897,-0.35071661136006316,"(0.0, 0.0, 0.0, 0.0, 0.0, 0.0, 0.0, 0.0, 0.0)",0.875,-0.125,-0.5625,"(0.0, 0.0, 0.0, 0.0, 0.0, 0.0, 0.0, 0.0, 0.0)",0.3662109375,0.765625,0.609375,"(0.0, 0.0, 0.0, 0.0, 0.0, 0.0, 0.0, 0.0, 0.0)"
2022/11/28/23:04:03.830289,5630,1669698243,829952239,RU_myo,0.8179656681556449,0.3090336674779517,-0.33491363489068154,-0.35108861452363777,"(0.0, 0.0, 0.0, 0.0, 0.0, 0.0, 0.0, 0.0, 0.0)",-5.0,1.5,-1.375,"(0.0, 0.0, 0.0, 0.0, 0.0, 0.0, 0.0, 0.0, 0.0)",0.35595703125,0.71875,0.6435546875,"(0.0, 0.0, 0.0, 0.0, 0.0, 0.0, 0.0, 0.0, 0.0)"
2022/11/28/23:04:03.847572,5631,1669698243,847188949,RU_myo,0.8186351335184617,0.30750699393572994,-0.33436349995631776,-0.3513929662739177,"(0.0, 0.0, 0.0, 0.0, 0.0, 0.0, 0.0, 0.0, 0.0)",-5.9375,0.375,-0.6875,"(0.0, 0.0, 0.0, 0.0, 0.0, 0.0, 0.0, 0.0, 0.0)",0.3603515625,0.69970703125,0.63427734375,"(0.0, 0.0, 0.0, 0.0, 0.0, 0.0, 0.0, 0.0, 0.0)"
2022/11/28/23:04:03.870852,5632,1669698243,870562791,RU_myo,0.819032410858064,0.30645813659127646,-0.3340460827651974,-0.35168527843834596,"(0.0, 0.0, 0.0, 0.0, 0.0, 0.0, 0.0, 0.0, 0.0)",-4.5,-0.1875,-0.5,"(0.0, 0.0, 0.0, 0.0, 0.0, 0.0, 0.0, 0.0, 0.0)",0.35302734375,0.7177734375,0.6240234375,"(0.0, 0.0, 0.0, 0.0, 0.0, 0.0, 0.0, 0.0, 0.0)"
2022/11/28/23:04:03.890229,5633,1669698243,889913320,RU_myo,0.819309890083248,0.305677116109432,-0.3339376002864821,-0.35182166478729354,"(0.0, 0.0, 0.0, 0.0, 0.0, 0.0, 0.0, 0.0, 0.0)",-2.3125,-0.5,-0.6875,"(0.0, 0.0, 0.0, 0.0, 0.0, 0.0, 0.0, 0.0, 0.0)",0.36279296875,0.7236328125,0.62451171875,"(0.0, 0.0, 0.0, 0.0, 0.0, 0.0, 0.0, 0.0, 0.0)"
2022/11/28/23:04:03.908768,5634,1669698243,908431291,RU_myo,0.819675878464361,0.3047614611045167,-0.3338764655000413,-0.3518215625488552,"(0.0, 0.0, 0.0, 0.0, 0.0, 0.0, 0.0, 0.0, 0.0)",-1.6875,0.3125,-0.9375,"(0.0, 0.0, 0.0, 0.0, 0.0, 0.0, 0.0, 0.0, 0.0)",0.3818359375,0.712890625,0.638671875,"(0.0, 0.0, 0.0, 0.0, 0.0, 0.0, 0.0, 0.0, 0.0)"
2022/11/28/23:04:03.927831,5635,1669698243,927513122,RU_myo,0.8200058350247086,0.30425970134709135,-0.3338616983688244,-0.35150082649105296,"(0.0, 0.0, 0.0, 0.0, 0.0, 0.0, 0.0, 0.0, 0.0)",0.375,1.1875,0.375,"(0.0, 0.0, 0.0, 0.0, 0.0, 0.0, 0.0, 0.0, 0.0)",0.3798828125,0.708984375,0.62548828125,"(0.0, 0.0, 0.0, 0.0, 0.0, 0.0, 0.0, 0.0, 0.0)"
2022/11/28/23:04:03.950610,5636,1669698243,950200319,RU_myo,0.8200738691098667,0.30414022698529813,-0.33386454778438307,-0.35144279088527924,"(0.0, 0.0, 0.0, 0.0, 0.0, 0.0, 0.0, 0.0, 0.0)",0.1875,0.75,0.6875,"(0.0, 0.0, 0.0, 0.0, 0.0, 0.0, 0.0, 0.0, 0.0)",0.35400390625,0.7255859375,0.626953125,"(0.0, 0.0, 0.0, 0.0, 0.0, 0.0, 0.0, 0.0, 0.0)"
2022/11/28/23:04:03.968772,5637,1669698243,968433856,RU_myo,0.8203071140254211,0.3036479086515231,-0.3336159736058744,-0.3515601917251805,"(0.0, 0.0, 0.0, 0.0, 0.0, 0.0, 0.0, 0.0, 0.0)",-1.5,0.875,-1.0625,"(0.0, 0.0, 0.0, 0.0, 0.0, 0.0, 0.0, 0.0, 0.0)",0.365234375,0.72998046875,0.626953125,"(0.0, 0.0, 0.0, 0.0, 0.0, 0.0, 0.0, 0.0, 0.0)"
2022/11/28/23:04:03.988041,5638,1669698243,987638950,RU_myo,0.8208497240158761,0.3027299153185178,-0.33324704387885223,-0.35143525250081153,"(0.0, 0.0, 0.0, 0.0, 0.0, 0.0, 0.0, 0.0, 0.0)",-2.3125,1.875,0.0,"(0.0, 0.0, 0.0, 0.0, 0.0, 0.0, 0.0, 0.0, 0.0)",0.37548828125,0.7021484375,0.64404296875,"(0.0, 0.0, 0.0, 0.0, 0.0, 0.0, 0.0, 0.0, 0.0)"
2022/11/28/23:04:04.010282,5639,1669698244,9967327,RU_myo,0.8213763609007602,0.3019505727410315,-0.3328963864422045,-0.3512075188097625,"(0.0, 0.0, 0.0, 0.0, 0.0, 0.0, 0.0, 0.0, 0.0)",-2.9375,1.8125,1.1875,"(0.0, 0.0, 0.0, 0.0, 0.0, 0.0, 0.0, 0.0, 0.0)",0.359375,0.7119140625,0.619140625,"(0.0, 0.0, 0.0, 0.0, 0.0, 0.0, 0.0, 0.0, 0.0)"
2022/11/28/23:04:04.028511,5640,1669698244,28208732,RU_myo,0.8218943177206425,0.300901454504884,-0.3325174694001233,-0.35125514618166476,"(0.0, 0.0, 0.0, 0.0, 0.0, 0.0, 0.0, 0.0, 0.0)",-5.375,1.1875,0.875,"(0.0, 0.0, 0.0, 0.0, 0.0, 0.0, 0.0, 0.0, 0.0)",0.35595703125,0.71875,0.61474609375,"(0.0, 0.0, 0.0, 0.0, 0.0, 0.0, 0.0, 0.0, 0.0)"
2022/11/28/23:04:04.048362,5641,1669698244,47800540,RU_myo,0.8224747224275656,0.2996920880979107,-0.3322248544840994,-0.35120738796647216,"(0.0, 0.0, 0.0, 0.0, 0.0, 0.0, 0.0, 0.0, 0.0)",-4.8125,0.125,1.3125,"(0.0, 0.0, 0.0, 0.0, 0.0, 0.0, 0.0, 0.0, 0.0)",0.36083984375,0.7138671875,0.63232421875,"(0.0, 0.0, 0.0, 0.0, 0.0, 0.0, 0.0, 0.0, 0.0)"
2022/11/28/23:04:04.070574,5642,1669698244,70197582,RU_myo,0.8227589681394986,0.29907410562934295,-0.33221639937561503,-0.35107637868979197,"(0.0, 0.0, 0.0, 0.0, 0.0, 0.0, 0.0, 0.0, 0.0)",-1.4375,-0.4375,1.25,"(0.0, 0.0, 0.0, 0.0, 0.0, 0.0, 0.0, 0.0, 0.0)",0.35791015625,0.72265625,0.634765625,"(0.0, 0.0, 0.0, 0.0, 0.0, 0.0, 0.0, 0.0, 0.0)"
2022/11/28/23:04:04.092875,5643,1669698244,92539072,RU_myo,0.822706960202307,0.2982228805956282,-0.3325252258462919,-0.35162955692006015,"(0.0, 0.0, 0.0, 0.0, 0.0, 0.0, 0.0, 0.0, 0.0)",-4.8125,-2.5625,-1.9375,"(0.0, 0.0, 0.0, 0.0, 0.0, 0.0, 0.0, 0.0, 0.0)",0.3701171875,0.73583984375,0.5986328125,"(0.0, 0.0, 0.0, 0.0, 0.0, 0.0, 0.0, 0.0, 0.0)"
2022/11/28/23:04:04.107802,5644,1669698244,107447385,RU_myo,0.8221527522002346,0.2970003928883699,-0.33343878880993927,-0.3530923289887422,"(0.0, 0.0, 0.0, 0.0, 0.0, 0.0, 0.0, 0.0, 0.0)",-7.875,-6.625,-7.9375,"(0.0, 0.0, 0.0, 0.0, 0.0, 0.0, 0.0, 0.0, 0.0)",0.42431640625,0.75439453125,0.58935546875,"(0.0, 0.0, 0.0, 0.0, 0.0, 0.0, 0.0, 0.0, 0.0)"
2022/11/28/23:04:04.130762,5645,1669698244,130282640,RU_myo,0.8202117254578768,0.29676063470577446,-0.335824148941006,-0.3555390162815994,"(0.0, 0.0, 0.0, 0.0, 0.0, 0.0, 0.0, 0.0, 0.0)",-3.1875,-12.625,-16.25,"(0.0, 0.0, 0.0, 0.0, 0.0, 0.0, 0.0, 0.0, 0.0)",0.462890625,0.7744140625,0.52685546875,"(0.0, 0.0, 0.0, 0.0, 0.0, 0.0, 0.0, 0.0, 0.0)"
2022/11/28/23:04:04.153525,5646,1669698244,153151988,RU_myo,0.8164641310584972,0.29730109758435674,-0.3397203673074378,-0.359983960901773,"(0.0, 0.0, 0.0, 0.0, 0.0, 0.0, 0.0, 0.0, 0.0)",-4.3125,-23.6875,-25.8125,"(0.0, 0.0, 0.0, 0.0, 0.0, 0.0, 0.0, 0.0, 0.0)",0.4443359375,0.83154296875,0.43212890625,"(0.0, 0.0, 0.0, 0.0, 0.0, 0.0, 0.0, 0.0, 0.0)"
2022/11/28/23:04:04.167765,5647,1669698244,167453289,RU_myo,0.811045528714003,0.29791640771019334,-0.344608899391877,-0.3670090882117174,"(0.0, 0.0, 0.0, 0.0, 0.0, 0.0, 0.0, 0.0, 0.0)",-11.8125,-34.5625,-36.9375,"(0.0, 0.0, 0.0, 0.0, 0.0, 0.0, 0.0, 0.0, 0.0)",0.439453125,0.95068359375,0.3642578125,"(0.0, 0.0, 0.0, 0.0, 0.0, 0.0, 0.0, 0.0, 0.0)"
2022/11/28/23:04:04.190848,5648,1669698244,190169095,RU_myo,0.804128299634834,0.29674928218782265,-0.3497881810403973,-0.37810814544499405,"(0.0, 0.0, 0.0, 0.0, 0.0, 0.0, 0.0, 0.0, 0.0)",-29.8125,-48.5,-53.6875,"(0.0, 0.0, 0.0, 0.0, 0.0, 0.0, 0.0, 0.0, 0.0)",0.44482421875,1.04833984375,0.33349609375,"(0.0, 0.0, 0.0, 0.0, 0.0, 0.0, 0.0, 0.0, 0.0)"
2022/11/28/23:04:04.212875,5649,1669698244,212497949,RU_myo,0.7962892907764465,0.2916960386801041,-0.3541369358489148,-0.39423827449985194,"(0.0, 0.0, 0.0, 0.0, 0.0, 0.0, 0.0, 0.0, 0.0)",-58.1875,-66.375,-69.25,"(0.0, 0.0, 0.0, 0.0, 0.0, 0.0, 0.0, 0.0, 0.0)",0.3837890625,1.06005859375,0.3427734375,"(0.0, 0.0, 0.0, 0.0, 0.0, 0.0, 0.0, 0.0, 0.0)"
2022/11/28/23:04:04.228190,5650,1669698244,227739572,RU_myo,0.7869718577190352,0.28264826067138604,-0.35894070848810655,-0.4146647123734392,"(0.0, 0.0, 0.0, 0.0, 0.0, 0.0, 0.0, 0.0, 0.0)",-79.125,-85.875,-87.3125,"(0.0, 0.0, 0.0, 0.0, 0.0, 0.0, 0.0, 0.0, 0.0)",0.4375,1.029296875,0.3740234375,"(0.0, 0.0, 0.0, 0.0, 0.0, 0.0, 0.0, 0.0, 0.0)"
2022/11/28/23:04:04.250341,5651,1669698244,249953269,RU_myo,0.776388866841798,0.2706374399038154,-0.36194858336256774,-0.4392822857437437,"(0.0, 0.0, 0.0, 0.0, 0.0, 0.0, 0.0, 0.0, 0.0)",-84.75,-101.4375,-107.3125,"(0.0, 0.0, 0.0, 0.0, 0.0, 0.0, 0.0, 0.0, 0.0)",0.419921875,0.8974609375,0.390625,"(0.0, 0.0, 0.0, 0.0, 0.0, 0.0, 0.0, 0.0, 0.0)"
2022/11/28/23:04:04.272664,5652,1669698244,272393703,RU_myo,0.7635572913760075,0.2569605273135884,-0.36584831370965537,-0.46594695142801285,"(0.0, 0.0, 0.0, 0.0, 0.0, 0.0, 0.0, 0.0, 0.0)",-89.875,-117.25,-118.25,"(0.0, 0.0, 0.0, 0.0, 0.0, 0.0, 0.0, 0.0, 0.0)",0.4765625,0.79150390625,0.37255859375,"(0.0, 0.0, 0.0, 0.0, 0.0, 0.0, 0.0, 0.0, 0.0)"
2022/11/28/23:04:04.288164,5653,1669698244,287649393,RU_myo,0.748223890131167,0.24365036050278316,-0.3713348680608549,-0.49285487501502356,"(0.0, 0.0, 0.0, 0.0, 0.0, 0.0, 0.0, 0.0, 0.0)",-80.0,-127.875,-125.375,"(0.0, 0.0, 0.0, 0.0, 0.0, 0.0, 0.0, 0.0, 0.0)",0.53564453125,0.75341796875,0.42138671875,"(0.0, 0.0, 0.0, 0.0, 0.0, 0.0, 0.0, 0.0, 0.0)"
2022/11/28/23:04:04.310657,5654,1669698244,310226678,RU_myo,0.7302276738107226,0.2324838857861119,-0.37848059221834596,-0.5191061823604309,"(0.0, 0.0, 0.0, 0.0, 0.0, 0.0, 0.0, 0.0, 0.0)",-59.75,-134.5,-132.3125,"(0.0, 0.0, 0.0, 0.0, 0.0, 0.0, 0.0, 0.0, 0.0)",0.5048828125,0.71142578125,0.47265625,"(0.0, 0.0, 0.0, 0.0, 0.0, 0.0, 0.0, 0.0, 0.0)"
2022/11/28/23:04:04.333092,5655,1669698244,332587003,RU_myo,0.7104597565401305,0.22217126407268686,-0.3867855220957738,-0.5443195969780829,"(0.0, 0.0, 0.0, 0.0, 0.0, 0.0, 0.0, 0.0, 0.0)",-47.9375,-139.8125,-133.0625,"(0.0, 0.0, 0.0, 0.0, 0.0, 0.0, 0.0, 0.0, 0.0)",0.44384765625,0.7080078125,0.4951171875,"(0.0, 0.0, 0.0, 0.0, 0.0, 0.0, 0.0, 0.0, 0.0)"
2022/11/28/23:04:04.348826,5656,1669698244,348180532,RU_myo,0.6895693846070167,0.20995916826412972,-0.3951382719017371,-0.5694532092745146,"(0.0, 0.0, 0.0, 0.0, 0.0, 0.0, 0.0, 0.0, 0.0)",-53.125,-148.8125,-131.875,"(0.0, 0.0, 0.0, 0.0, 0.0, 0.0, 0.0, 0.0, 0.0)",0.42578125,0.68994140625,0.5009765625,"(0.0, 0.0, 0.0, 0.0, 0.0, 0.0, 0.0, 0.0, 0.0)"
2022/11/28/23:04:04.370389,5657,1669698244,370012760,RU_myo,0.6679108885018613,0.1943368609147333,-0.4032001580410578,-0.594607317534966,"(0.0, 0.0, 0.0, 0.0, 0.0, 0.0, 0.0, 0.0, 0.0)",-66.0,-160.5,-127.8125,"(0.0, 0.0, 0.0, 0.0, 0.0, 0.0, 0.0, 0.0, 0.0)",0.47314453125,0.6357421875,0.5546875,"(0.0, 0.0, 0.0, 0.0, 0.0, 0.0, 0.0, 0.0, 0.0)"
2022/11/28/23:04:04.393105,5658,1669698244,392628431,RU_myo,0.6465859883728242,0.17412779165826578,-0.40977707437560335,-0.6194262031334522,"(0.0, 0.0, 0.0, 0.0, 0.0, 0.0, 0.0, 0.0, 0.0)",-87.0,-168.5625,-117.3125,"(0.0, 0.0, 0.0, 0.0, 0.0, 0.0, 0.0, 0.0, 0.0)",0.5224609375,0.5673828125,0.57568359375,"(0.0, 0.0, 0.0, 0.0, 0.0, 0.0, 0.0, 0.0, 0.0)"
2022/11/28/23:04:04.411395,5659,1669698244,410891056,RU_myo,0.6260193060685204,0.15050829762747112,-0.4139893685349297,-0.6434748507244233,"(0.0, 0.0, 0.0, 0.0, 0.0, 0.0, 0.0, 0.0, 0.0)",-106.5625,-169.9375,-106.0,"(0.0, 0.0, 0.0, 0.0, 0.0, 0.0, 0.0, 0.0, 0.0)",0.53173828125,0.5390625,0.60107421875,"(0.0, 0.0, 0.0, 0.0, 0.0, 0.0, 0.0, 0.0, 0.0)"
2022/11/28/23:04:04.430454,5660,1669698244,430025815,RU_myo,0.6052668082705197,0.12542334284520704,-0.41533131292536923,-0.667398663752963,"(0.0, 0.0, 0.0, 0.0, 0.0, 0.0, 0.0, 0.0, 0.0)",-122.1875,-165.4375,-105.0,"(0.0, 0.0, 0.0, 0.0, 0.0, 0.0, 0.0, 0.0, 0.0)",0.5,0.52587890625,0.6181640625,"(0.0, 0.0, 0.0, 0.0, 0.0, 0.0, 0.0, 0.0, 0.0)"
2022/11/28/23:04:04.452959,5661,1669698244,452573537,RU_myo,0.5833671572145583,0.09832647941751971,-0.41460693648864766,-0.6914591466921669,"(0.0, 0.0, 0.0, 0.0, 0.0, 0.0, 0.0, 0.0, 0.0)",-136.0,-169.0,-106.5625,"(0.0, 0.0, 0.0, 0.0, 0.0, 0.0, 0.0, 0.0, 0.0)",0.53076171875,0.484375,0.64794921875,"(0.0, 0.0, 0.0, 0.0, 0.0, 0.0, 0.0, 0.0, 0.0)"
2022/11/28/23:04:04.469695,5662,1669698244,469251632,RU_myo,0.5618798776251679,0.06909059542382034,-0.41222427693682206,-0.7138547739196137,"(0.0, 0.0, 0.0, 0.0, 0.0, 0.0, 0.0, 0.0, 0.0)",-144.8125,-169.6875,-96.0,"(0.0, 0.0, 0.0, 0.0, 0.0, 0.0, 0.0, 0.0, 0.0)",0.5693359375,0.3935546875,0.6689453125,"(0.0, 0.0, 0.0, 0.0, 0.0, 0.0, 0.0, 0.0, 0.0)"
2022/11/28/23:04:04.490441,5663,1669698244,490052461,RU_myo,0.5411253463624142,0.03918367610700089,-0.4094144849310934,-0.733503768619839,"(0.0, 0.0, 0.0, 0.0, 0.0, 0.0, 0.0, 0.0, 0.0)",-141.6875,-167.875,-83.5,"(0.0, 0.0, 0.0, 0.0, 0.0, 0.0, 0.0, 0.0, 0.0)",0.6318359375,0.32470703125,0.7265625,"(0.0, 0.0, 0.0, 0.0, 0.0, 0.0, 0.0, 0.0, 0.0)"
2022/11/28/23:04:04.512986,5664,1669698244,512563467,RU_myo,0.521608146535892,0.011657752865475705,-0.40722789067253357,-0.7496362339988095,"(0.0, 0.0, 0.0, 0.0, 0.0, 0.0, 0.0, 0.0, 0.0)",-122.375,-156.875,-73.25,"(0.0, 0.0, 0.0, 0.0, 0.0, 0.0, 0.0, 0.0, 0.0)",0.62890625,0.2216796875,0.75244140625,"(0.0, 0.0, 0.0, 0.0, 0.0, 0.0, 0.0, 0.0, 0.0)"
2022/11/28/23:04:04.529525,5665,1669698244,529068470,RU_myo,0.5031650164796752,-0.011718544779730425,-0.4099659650283816,-0.7606678311967724,"(0.0, 0.0, 0.0, 0.0, 0.0, 0.0, 0.0, 0.0, 0.0)",-77.1875,-153.1875,-60.25,"(0.0, 0.0, 0.0, 0.0, 0.0, 0.0, 0.0, 0.0, 0.0)",0.4697265625,0.27734375,0.80859375,"(0.0, 0.0, 0.0, 0.0, 0.0, 0.0, 0.0, 0.0, 0.0)"
2022/11/28/23:04:04.550388,5666,1669698244,550009489,RU_myo,0.48552405000563886,-0.0316155195352509,-0.42040096246874176,-0.76585239213963,"(0.0, 0.0, 0.0, 0.0, 0.0, 0.0, 0.0, 0.0, 0.0)",-21.1875,-159.1875,-47.5,"(0.0, 0.0, 0.0, 0.0, 0.0, 0.0, 0.0, 0.0, 0.0)",0.37451171875,0.28076171875,0.6962890625,"(0.0, 0.0, 0.0, 0.0, 0.0, 0.0, 0.0, 0.0, 0.0)"
2022/11/28/23:04:04.573031,5667,1669698244,572611331,RU_myo,0.46954288067562794,-0.051330503398960496,-0.43585151578118536,-0.7661123408605852,"(0.0, 0.0, 0.0, 0.0, 0.0, 0.0, 0.0, 0.0, 0.0)",13.5625,-168.875,-28.375,"(0.0, 0.0, 0.0, 0.0, 0.0, 0.0, 0.0, 0.0, 0.0)",0.39111328125,0.2373046875,0.60791015625,"(0.0, 0.0, 0.0, 0.0, 0.0, 0.0, 0.0, 0.0, 0.0)"
2022/11/28/23:04:04.589349,5668,1669698244,588942766,RU_myo,0.45683892566155176,-0.06994487759627767,-0.4551299757726375,-0.7610930398128992,"(0.0, 0.0, 0.0, 0.0, 0.0, 0.0, 0.0, 0.0, 0.0)",49.0,-167.0625,-6.1875,"(0.0, 0.0, 0.0, 0.0, 0.0, 0.0, 0.0, 0.0, 0.0)",0.59130859375,0.1796875,0.67626953125,"(0.0, 0.0, 0.0, 0.0, 0.0, 0.0, 0.0, 0.0, 0.0)"
2022/11/28/23:04:04.610607,5669,1669698244,610126018,RU_myo,0.4482980397160215,-0.08380030068483288,-0.4800359540322,-0.7493809845654611,"(0.0, 0.0, 0.0, 0.0, 0.0, 0.0, 0.0, 0.0, 0.0)",106.0625,-154.4375,14.8125,"(0.0, 0.0, 0.0, 0.0, 0.0, 0.0, 0.0, 0.0, 0.0)",0.57861328125,0.15478515625,0.71533203125,"(0.0, 0.0, 0.0, 0.0, 0.0, 0.0, 0.0, 0.0, 0.0)"
2022/11/28/23:04:04.632890,5670,1669698244,632444143,RU_myo,0.44511832290113035,-0.0946631727436793,-0.5092646765785043,-0.7304505811710856,"(0.0, 0.0, 0.0, 0.0, 0.0, 0.0, 0.0, 0.0, 0.0)",154.0,-141.25,46.625,"(0.0, 0.0, 0.0, 0.0, 0.0, 0.0, 0.0, 0.0, 0.0)",0.54052734375,0.16015625,0.609375,"(0.0, 0.0, 0.0, 0.0, 0.0, 0.0, 0.0, 0.0, 0.0)"
2022/11/28/23:04:04.649921,5671,1669698244,649544954,RU_myo,0.4461012141179405,-0.10601693924242203,-0.5391178032978203,-0.7064744224128009,"(0.0, 0.0, 0.0, 0.0, 0.0, 0.0, 0.0, 0.0, 0.0)",172.5,-135.5625,76.25,"(0.0, 0.0, 0.0, 0.0, 0.0, 0.0, 0.0, 0.0, 0.0)",0.662109375,0.1533203125,0.57958984375,"(0.0, 0.0, 0.0, 0.0, 0.0, 0.0, 0.0, 0.0, 0.0)"
2022/11/28/23:04:04.670454,5672,1669698244,670011281,RU_myo,0.45262965625329055,-0.11877256082374642,-0.567923267453731,-0.6771134582624063,"(0.0, 0.0, 0.0, 0.0, 0.0, 0.0, 0.0, 0.0, 0.0)",184.625,-124.5,115.375,"(0.0, 0.0, 0.0, 0.0, 0.0, 0.0, 0.0, 0.0, 0.0)",0.66845703125,-0.02880859375,0.47216796875,"(0.0, 0.0, 0.0, 0.0, 0.0, 0.0, 0.0, 0.0, 0.0)"
2022/11/28/23:04:04.692913,5673,1669698244,692433357,RU_myo,0.463801771537073,-0.13384883339660497,-0.5948430142650761,-0.642755159370564,"(0.0, 0.0, 0.0, 0.0, 0.0, 0.0, 0.0, 0.0, 0.0)",187.5625,-114.4375,155.25,"(0.0, 0.0, 0.0, 0.0, 0.0, 0.0, 0.0, 0.0, 0.0)",0.80224609375,0.05419921875,0.240234375,"(0.0, 0.0, 0.0, 0.0, 0.0, 0.0, 0.0, 0.0, 0.0)"
2022/11/28/23:04:04.709872,5674,1669698244,709330320,RU_myo,0.4758227592071035,-0.14794694308850936,-0.6200466150314218,-0.6060087450188982,"(0.0, 0.0, 0.0, 0.0, 0.0, 0.0, 0.0, 0.0, 0.0)",189.5625,-104.75,167.0,"(0.0, 0.0, 0.0, 0.0, 0.0, 0.0, 0.0, 0.0, 0.0)",0.9306640625,0.44189453125,0.11328125,"(0.0, 0.0, 0.0, 0.0, 0.0, 0.0, 0.0, 0.0, 0.0)"
2022/11/28/23:04:04.730381,5675,1669698244,729950189,RU_myo,0.48697091677339127,-0.16338151951402036,-0.6398550058218115,-0.5716217077954108,"(0.0, 0.0, 0.0, 0.0, 0.0, 0.0, 0.0, 0.0, 0.0)",157.4375,-95.5,170.25,"(0.0, 0.0, 0.0, 0.0, 0.0, 0.0, 0.0, 0.0, 0.0)",1.00244140625,0.673828125,0.04296875,"(0.0, 0.0, 0.0, 0.0, 0.0, 0.0, 0.0, 0.0, 0.0)"
2022/11/28/23:04:04.752809,5676,1669698244,752476453,RU_myo,0.4964416005422515,-0.18029118367369204,-0.6543947431785125,-0.5411176826171136,"(0.0, 0.0, 0.0, 0.0, 0.0, 0.0, 0.0, 0.0, 0.0)",120.25,-89.125,165.75,"(0.0, 0.0, 0.0, 0.0, 0.0, 0.0, 0.0, 0.0, 0.0)",1.10498046875,0.77099609375,0.029296875,"(0.0, 0.0, 0.0, 0.0, 0.0, 0.0, 0.0, 0.0, 0.0)"
2022/11/28/23:04:04.769749,5677,1669698244,769392728,RU_myo,0.5071294929170127,-0.1965286998667446,-0.6659393305111958,-0.5106084171072004,"(0.0, 0.0, 0.0, 0.0, 0.0, 0.0, 0.0, 0.0, 0.0)",116.0,-76.1875,170.625,"(0.0, 0.0, 0.0, 0.0, 0.0, 0.0, 0.0, 0.0, 0.0)",1.1494140625,0.74951171875,0.17041015625,"(0.0, 0.0, 0.0, 0.0, 0.0, 0.0, 0.0, 0.0, 0.0)"
