time,.header.seq,.header.stamp.secs,.header.stamp.nsecs,.header.frame_id,.orientation.x,.orientation.y,.orientation.z,.orientation.w,.orientation_covariance,.angular_velocity.x,.angular_velocity.y,.angular_velocity.z,.angular_velocity_covariance,.linear_acceleration.x,.linear_acceleration.y,.linear_acceleration.z,.linear_acceleration_covariance
2022/11/28/23:08:16.974674,8947,1669698496,973413228,RU_myo,0.711347358492579,-0.04388320469808359,-0.6825394688994003,-0.16186127796845298,"(0.0, 0.0, 0.0, 0.0, 0.0, 0.0, 0.0, 0.0, 0.0)",-3.5,0.625,-2.6875,"(0.0, 0.0, 0.0, 0.0, 0.0, 0.0, 0.0, 0.0, 0.0)",0.9990234375,0.16796875,0.0537109375,"(0.0, 0.0, 0.0, 0.0, 0.0, 0.0, 0.0, 0.0, 0.0)"
2022/11/28/23:08:16.996921,8948,1669698496,996447086,RU_myo,0.7100132389020342,-0.04449408159198684,-0.6835243069254604,-0.163389103459189,"(0.0, 0.0, 0.0, 0.0, 0.0, 0.0, 0.0, 0.0, 0.0)",-8.6875,-4.0,-5.5625,"(0.0, 0.0, 0.0, 0.0, 0.0, 0.0, 0.0, 0.0, 0.0)",1.02685546875,0.1611328125,-0.01318359375,"(0.0, 0.0, 0.0, 0.0, 0.0, 0.0, 0.0, 0.0, 0.0)"
2022/11/28/23:08:17.010556,8949,1669698497,10254859,RU_myo,0.7065888410011452,-0.04516504641451563,-0.6865087055006376,-0.16552379172454917,"(0.0, 0.0, 0.0, 0.0, 0.0, 0.0, 0.0, 0.0, 0.0)",-10.75,-14.4375,-12.3125,"(0.0, 0.0, 0.0, 0.0, 0.0, 0.0, 0.0, 0.0, 0.0)",1.1025390625,0.1533203125,-0.103515625,"(0.0, 0.0, 0.0, 0.0, 0.0, 0.0, 0.0, 0.0, 0.0)"
2022/11/28/23:08:17.033718,8950,1669698497,33342123,RU_myo,0.7019288118836564,-0.04663248802427074,-0.6902706898775887,-0.16925639959594602,"(0.0, 0.0, 0.0, 0.0, 0.0, 0.0, 0.0, 0.0, 0.0)",-21.4375,-15.875,-16.0,"(0.0, 0.0, 0.0, 0.0, 0.0, 0.0, 0.0, 0.0, 0.0)",1.125,0.17578125,-0.2109375,"(0.0, 0.0, 0.0, 0.0, 0.0, 0.0, 0.0, 0.0, 0.0)"
2022/11/28/23:08:17.056325,8951,1669698497,55962562,RU_myo,0.6957278887630713,-0.051512793939471196,-0.6936527288176424,-0.17931823293147675,"(0.0, 0.0, 0.0, 0.0, 0.0, 0.0, 0.0, 0.0, 0.0)",-61.625,-21.8125,-14.3125,"(0.0, 0.0, 0.0, 0.0, 0.0, 0.0, 0.0, 0.0, 0.0)",1.08251953125,0.3935546875,-0.224609375,"(0.0, 0.0, 0.0, 0.0, 0.0, 0.0, 0.0, 0.0, 0.0)"
2022/11/28/23:08:17.077390,8952,1669698497,76861619,RU_myo,0.6895675196637161,-0.06298758012860285,-0.6945723467669578,-0.19518825702642625,"(0.0, 0.0, 0.0, 0.0, 0.0, 0.0, 0.0, 0.0, 0.0)",-110.5625,-30.4375,-21.0,"(0.0, 0.0, 0.0, 0.0, 0.0, 0.0, 0.0, 0.0, 0.0)",1.0400390625,0.40625,-0.25341796875,"(0.0, 0.0, 0.0, 0.0, 0.0, 0.0, 0.0, 0.0, 0.0)"
2022/11/28/23:08:17.093974,8953,1669698497,93539237,RU_myo,0.6807774112428702,-0.07696434602629185,-0.6957308329529744,-0.21581754762011734,"(0.0, 0.0, 0.0, 0.0, 0.0, 0.0, 0.0, 0.0, 0.0)",-140.375,-43.8125,-35.625,"(0.0, 0.0, 0.0, 0.0, 0.0, 0.0, 0.0, 0.0, 0.0)",1.05810546875,0.25341796875,-0.22705078125,"(0.0, 0.0, 0.0, 0.0, 0.0, 0.0, 0.0, 0.0, 0.0)"
2022/11/28/23:08:17.116233,8954,1669698497,115885972,RU_myo,0.6704743260415129,-0.09484907625566782,-0.6959871406328058,-0.2388927184457425,"(0.0, 0.0, 0.0, 0.0, 0.0, 0.0, 0.0, 0.0, 0.0)",-166.6875,-50.9375,-31.25,"(0.0, 0.0, 0.0, 0.0, 0.0, 0.0, 0.0, 0.0, 0.0)",0.97509765625,0.22314453125,-0.16796875,"(0.0, 0.0, 0.0, 0.0, 0.0, 0.0, 0.0, 0.0, 0.0)"
2022/11/28/23:08:17.137161,8955,1669698497,136777162,RU_myo,0.6595917054548602,-0.11065418358375698,-0.6962119537451273,-0.2607361678267015,"(0.0, 0.0, 0.0, 0.0, 0.0, 0.0, 0.0, 0.0, 0.0)",-153.5,-53.75,-34.875,"(0.0, 0.0, 0.0, 0.0, 0.0, 0.0, 0.0, 0.0, 0.0)",0.94091796875,0.2666015625,-0.01416015625,"(0.0, 0.0, 0.0, 0.0, 0.0, 0.0, 0.0, 0.0, 0.0)"
2022/11/28/23:08:17.154032,8956,1669698497,153739690,RU_myo,0.6476172230705858,-0.12322487733291045,-0.6971146849413091,-0.28184867930826174,"(0.0, 0.0, 0.0, 0.0, 0.0, 0.0, 0.0, 0.0, 0.0)",-138.625,-54.5625,-44.6875,"(0.0, 0.0, 0.0, 0.0, 0.0, 0.0, 0.0, 0.0, 0.0)",0.8505859375,0.41552734375,-0.1181640625,"(0.0, 0.0, 0.0, 0.0, 0.0, 0.0, 0.0, 0.0, 0.0)"
2022/11/28/23:08:17.176301,8957,1669698497,176000118,RU_myo,0.6332348535805463,-0.1393421851300614,-0.6951240238485631,-0.3104834409796857,"(0.0, 0.0, 0.0, 0.0, 0.0, 0.0, 0.0, 0.0, 0.0)",-188.125,-54.5625,-58.5625,"(0.0, 0.0, 0.0, 0.0, 0.0, 0.0, 0.0, 0.0, 0.0)",0.83203125,0.54833984375,-0.07666015625,"(0.0, 0.0, 0.0, 0.0, 0.0, 0.0, 0.0, 0.0, 0.0)"
2022/11/28/23:08:17.197200,8958,1669698497,196688413,RU_myo,0.6170620448091296,-0.1555777598633503,-0.6915245269720512,-0.3417950000920995,"(0.0, 0.0, 0.0, 0.0, 0.0, 0.0, 0.0, 0.0, 0.0)",-203.1875,-54.375,-70.0,"(0.0, 0.0, 0.0, 0.0, 0.0, 0.0, 0.0, 0.0, 0.0)",0.8095703125,0.52587890625,-0.0361328125,"(0.0, 0.0, 0.0, 0.0, 0.0, 0.0, 0.0, 0.0, 0.0)"
2022/11/28/23:08:17.214746,8959,1669698497,214269399,RU_myo,0.5997030275254633,-0.17101240414475355,-0.6850261328053939,-0.37663010206183944,"(0.0, 0.0, 0.0, 0.0, 0.0, 0.0, 0.0, 0.0, 0.0)",-221.1875,-44.625,-92.5,"(0.0, 0.0, 0.0, 0.0, 0.0, 0.0, 0.0, 0.0, 0.0)",0.8388671875,0.1484375,-0.04248046875,"(0.0, 0.0, 0.0, 0.0, 0.0, 0.0, 0.0, 0.0, 0.0)"
2022/11/28/23:08:17.236554,8960,1669698497,236083507,RU_myo,0.5806108442931041,-0.1790109961433485,-0.6804615056263867,-0.40965625847737985,"(0.0, 0.0, 0.0, 0.0, 0.0, 0.0, 0.0, 0.0, 0.0)",-186.25,-42.75,-120.0625,"(0.0, 0.0, 0.0, 0.0, 0.0, 0.0, 0.0, 0.0, 0.0)",0.9501953125,0.2998046875,-0.07470703125,"(0.0, 0.0, 0.0, 0.0, 0.0, 0.0, 0.0, 0.0, 0.0)"
2022/11/28/23:08:17.257786,8961,1669698497,257056474,RU_myo,0.5614328617236105,-0.18126487654300721,-0.677454589100128,-0.4393079398506956,"(0.0, 0.0, 0.0, 0.0, 0.0, 0.0, 0.0, 0.0, 0.0)",-149.9375,-39.375,-132.625,"(0.0, 0.0, 0.0, 0.0, 0.0, 0.0, 0.0, 0.0, 0.0)",1.20068359375,0.45654296875,0.00537109375,"(0.0, 0.0, 0.0, 0.0, 0.0, 0.0, 0.0, 0.0, 0.0)"
2022/11/28/23:08:17.275648,8962,1669698497,274852514,RU_myo,0.5443495165085597,-0.1826094577187589,-0.6729451473285546,-0.4663498885123785,"(0.0, 0.0, 0.0, 0.0, 0.0, 0.0, 0.0, 0.0, 0.0)",-137.375,-29.3125,-123.25,"(0.0, 0.0, 0.0, 0.0, 0.0, 0.0, 0.0, 0.0, 0.0)",1.16650390625,0.36279296875,0.15625,"(0.0, 0.0, 0.0, 0.0, 0.0, 0.0, 0.0, 0.0, 0.0)"
2022/11/28/23:08:17.296254,8963,1669698497,295892477,RU_myo,0.5303090686122698,-0.18150985959867535,-0.6678757207761615,-0.489661601735095,"(0.0, 0.0, 0.0, 0.0, 0.0, 0.0, 0.0, 0.0, 0.0)",-112.3125,-15.6875,-113.5,"(0.0, 0.0, 0.0, 0.0, 0.0, 0.0, 0.0, 0.0, 0.0)",1.119140625,0.296875,0.35986328125,"(0.0, 0.0, 0.0, 0.0, 0.0, 0.0, 0.0, 0.0, 0.0)"
2022/11/28/23:08:17.317285,8964,1669698497,316779613,RU_myo,0.5201145682114122,-0.17577211411040453,-0.6643941785437026,-0.5071147556053303,"(0.0, 0.0, 0.0, 0.0, 0.0, 0.0, 0.0, 0.0, 0.0)",-65.25,-2.5,-103.9375,"(0.0, 0.0, 0.0, 0.0, 0.0, 0.0, 0.0, 0.0, 0.0)",0.99462890625,0.29931640625,0.59814453125,"(0.0, 0.0, 0.0, 0.0, 0.0, 0.0, 0.0, 0.0, 0.0)"
2022/11/28/23:08:17.333776,8965,1669698497,333468675,RU_myo,0.51841408820792,-0.16497213096609464,-0.6569589410725278,-0.5219540007480731,"(0.0, 0.0, 0.0, 0.0, 0.0, 0.0, 0.0, 0.0, 0.0)",-23.375,22.5625,-98.625,"(0.0, 0.0, 0.0, 0.0, 0.0, 0.0, 0.0, 0.0, 0.0)",0.96337890625,0.31982421875,0.740234375,"(0.0, 0.0, 0.0, 0.0, 0.0, 0.0, 0.0, 0.0, 0.0)"
2022/11/28/23:08:17.356330,8966,1669698497,355808496,RU_myo,0.519949567739088,-0.15405008909184859,-0.6489756724697409,-0.5336212079754485,"(0.0, 0.0, 0.0, 0.0, 0.0, 0.0, 0.0, 0.0, 0.0)",-13.125,43.5625,-82.6875,"(0.0, 0.0, 0.0, 0.0, 0.0, 0.0, 0.0, 0.0, 0.0)",0.9384765625,0.2705078125,0.61962890625,"(0.0, 0.0, 0.0, 0.0, 0.0, 0.0, 0.0, 0.0, 0.0)"
2022/11/28/23:08:17.377683,8967,1669698497,376727104,RU_myo,0.526667836007445,-0.14190551845142077,-0.6371405191889812,-0.5445509830639037,"(0.0, 0.0, 0.0, 0.0, 0.0, 0.0, 0.0, 0.0, 0.0)",-11.1875,76.0,-71.625,"(0.0, 0.0, 0.0, 0.0, 0.0, 0.0, 0.0, 0.0, 0.0)",0.90283203125,0.1748046875,0.685546875,"(0.0, 0.0, 0.0, 0.0, 0.0, 0.0, 0.0, 0.0, 0.0)"
2022/11/28/23:08:17.393811,8968,1669698497,393272161,RU_myo,0.5348960469205101,-0.12591174632553767,-0.6247981323967665,-0.554670843725878,"(0.0, 0.0, 0.0, 0.0, 0.0, 0.0, 0.0, 0.0, 0.0)",0.5,99.1875,-69.0,"(0.0, 0.0, 0.0, 0.0, 0.0, 0.0, 0.0, 0.0, 0.0)",0.87890625,0.33447265625,0.66015625,"(0.0, 0.0, 0.0, 0.0, 0.0, 0.0, 0.0, 0.0, 0.0)"
2022/11/28/23:08:17.416458,8969,1669698497,415981292,RU_myo,0.5427272518956852,-0.10498097989885048,-0.618106036881197,-0.5589016470545197,"(0.0, 0.0, 0.0, 0.0, 0.0, 0.0, 0.0, 0.0, 0.0)",37.875,112.875,-61.9375,"(0.0, 0.0, 0.0, 0.0, 0.0, 0.0, 0.0, 0.0, 0.0)",0.9091796875,0.40283203125,0.62841796875,"(0.0, 0.0, 0.0, 0.0, 0.0, 0.0, 0.0, 0.0, 0.0)"
2022/11/28/23:08:17.437227,8970,1669698497,436655282,RU_myo,0.5544306592826622,-0.0803204257613368,-0.6128399658583455,-0.5572992459169956,"(0.0, 0.0, 0.0, 0.0, 0.0, 0.0, 0.0, 0.0, 0.0)",77.125,132.125,-47.75,"(0.0, 0.0, 0.0, 0.0, 0.0, 0.0, 0.0, 0.0, 0.0)",0.95703125,0.3115234375,0.56689453125,"(0.0, 0.0, 0.0, 0.0, 0.0, 0.0, 0.0, 0.0, 0.0)"
2022/11/28/23:08:17.453612,8971,1669698497,453248262,RU_myo,0.5700488342931614,-0.05004711393151953,-0.607950368136422,-0.5503961871151746,"(0.0, 0.0, 0.0, 0.0, 0.0, 0.0, 0.0, 0.0, 0.0)",114.8125,162.1875,-37.75,"(0.0, 0.0, 0.0, 0.0, 0.0, 0.0, 0.0, 0.0, 0.0)",0.89111328125,0.31982421875,0.45068359375,"(0.0, 0.0, 0.0, 0.0, 0.0, 0.0, 0.0, 0.0, 0.0)"
2022/11/28/23:08:17.476353,8972,1669698497,476022243,RU_myo,0.5884199120274243,-0.011779384194719727,-0.6042274794182658,-0.5371521258949654,"(0.0, 0.0, 0.0, 0.0, 0.0, 0.0, 0.0, 0.0, 0.0)",167.5,192.6875,-36.0625,"(0.0, 0.0, 0.0, 0.0, 0.0, 0.0, 0.0, 0.0, 0.0)",0.83203125,0.32958984375,0.37548828125,"(0.0, 0.0, 0.0, 0.0, 0.0, 0.0, 0.0, 0.0, 0.0)"
2022/11/28/23:08:17.497459,8973,1669698497,496942996,RU_myo,0.6077230175772188,0.031066688354605243,-0.600887125444182,-0.5183071070870485,"(0.0, 0.0, 0.0, 0.0, 0.0, 0.0, 0.0, 0.0, 0.0)",203.4375,208.3125,-30.1875,"(0.0, 0.0, 0.0, 0.0, 0.0, 0.0, 0.0, 0.0, 0.0)",0.74072265625,0.29931640625,0.3486328125,"(0.0, 0.0, 0.0, 0.0, 0.0, 0.0, 0.0, 0.0, 0.0)"
2022/11/28/23:08:17.513982,8974,1669698497,513629198,RU_myo,0.6258488570530807,0.0754998084820227,-0.5975898341531805,-0.49547893715202934,"(0.0, 0.0, 0.0, 0.0, 0.0, 0.0, 0.0, 0.0, 0.0)",222.375,210.8125,-26.3125,"(0.0, 0.0, 0.0, 0.0, 0.0, 0.0, 0.0, 0.0, 0.0)",0.78271484375,0.291015625,0.28662109375,"(0.0, 0.0, 0.0, 0.0, 0.0, 0.0, 0.0, 0.0, 0.0)"
2022/11/28/23:08:17.536304,8975,1669698497,536037445,RU_myo,0.6420211898298357,0.11889507346596825,-0.5939260574421648,-0.4700261605551445,"(0.0, 0.0, 0.0, 0.0, 0.0, 0.0, 0.0, 0.0, 0.0)",224.375,205.8125,-17.6875,"(0.0, 0.0, 0.0, 0.0, 0.0, 0.0, 0.0, 0.0, 0.0)",0.8583984375,0.51708984375,0.091796875,"(0.0, 0.0, 0.0, 0.0, 0.0, 0.0, 0.0, 0.0, 0.0)"
2022/11/28/23:08:17.557533,8976,1669698497,556910514,RU_myo,0.6541767859702274,0.15997362903787704,-0.5881975822350328,-0.4477552623509599,"(0.0, 0.0, 0.0, 0.0, 0.0, 0.0, 0.0, 0.0, 0.0)",200.4375,191.6875,-30.25,"(0.0, 0.0, 0.0, 0.0, 0.0, 0.0, 0.0, 0.0, 0.0)",0.8125,0.83642578125,0.07763671875,"(0.0, 0.0, 0.0, 0.0, 0.0, 0.0, 0.0, 0.0, 0.0)"
2022/11/28/23:08:17.573743,8977,1669698497,573364257,RU_myo,0.6645048540801816,0.1949507214046202,-0.5799692406971512,-0.4290258674868739,"(0.0, 0.0, 0.0, 0.0, 0.0, 0.0, 0.0, 0.0, 0.0)",160.5,175.1875,-28.625,"(0.0, 0.0, 0.0, 0.0, 0.0, 0.0, 0.0, 0.0, 0.0)",0.60986328125,0.74462890625,-0.005859375,"(0.0, 0.0, 0.0, 0.0, 0.0, 0.0, 0.0, 0.0, 0.0)"
2022/11/28/23:08:17.596575,8978,1669698497,596208095,RU_myo,0.6737045940173839,0.21911573586903502,-0.5718981741205733,-0.4135733220748137,"(0.0, 0.0, 0.0, 0.0, 0.0, 0.0, 0.0, 0.0, 0.0)",109.8125,141.375,-10.375,"(0.0, 0.0, 0.0, 0.0, 0.0, 0.0, 0.0, 0.0, 0.0)",0.609375,0.56884765625,-0.06884765625,"(0.0, 0.0, 0.0, 0.0, 0.0, 0.0, 0.0, 0.0, 0.0)"
2022/11/28/23:08:17.617317,8979,1669698497,616693258,RU_myo,0.6811486656877203,0.23870720712407473,-0.5648773208727464,-0.3999612191981748,"(0.0, 0.0, 0.0, 0.0, 0.0, 0.0, 0.0, 0.0, 0.0)",90.1875,119.125,-5.5,"(0.0, 0.0, 0.0, 0.0, 0.0, 0.0, 0.0, 0.0, 0.0)",0.6767578125,0.609375,-0.12060546875,"(0.0, 0.0, 0.0, 0.0, 0.0, 0.0, 0.0, 0.0, 0.0)"
2022/11/28/23:08:17.633316,8980,1669698497,632915258,RU_myo,0.6872355551098578,0.2570114496063598,-0.5579058800407825,-0.3878059251481382,"(0.0, 0.0, 0.0, 0.0, 0.0, 0.0, 0.0, 0.0, 0.0)",81.875,109.3125,-9.5,"(0.0, 0.0, 0.0, 0.0, 0.0, 0.0, 0.0, 0.0, 0.0)",0.67822265625,0.71044921875,-0.09326171875,"(0.0, 0.0, 0.0, 0.0, 0.0, 0.0, 0.0, 0.0, 0.0)"
2022/11/28/23:08:17.657264,8981,1669698497,656215906,RU_myo,0.6933458045005518,0.2733100803304112,-0.5504042662839769,-0.3763354076188735,"(0.0, 0.0, 0.0, 0.0, 0.0, 0.0, 0.0, 0.0, 0.0)",72.0,104.8125,-5.5625,"(0.0, 0.0, 0.0, 0.0, 0.0, 0.0, 0.0, 0.0, 0.0)",0.5732421875,0.69775390625,-0.01806640625,"(0.0, 0.0, 0.0, 0.0, 0.0, 0.0, 0.0, 0.0, 0.0)"
2022/11/28/23:08:17.677234,8982,1669698497,676753520,RU_myo,0.6962809256445572,0.2880215364758648,-0.5476010225177916,-0.3638263146710384,"(0.0, 0.0, 0.0, 0.0, 0.0, 0.0, 0.0, 0.0, 0.0)",70.625,83.75,3.5625,"(0.0, 0.0, 0.0, 0.0, 0.0, 0.0, 0.0, 0.0, 0.0)",0.4609375,0.61181640625,-0.11474609375,"(0.0, 0.0, 0.0, 0.0, 0.0, 0.0, 0.0, 0.0, 0.0)"
2022/11/28/23:08:17.693070,8983,1669698497,692628383,RU_myo,0.6966047963428937,0.3001754480342024,-0.5490195516607667,-0.3510185037911138,"(0.0, 0.0, 0.0, 0.0, 0.0, 0.0, 0.0, 0.0, 0.0)",70.9375,56.125,14.875,"(0.0, 0.0, 0.0, 0.0, 0.0, 0.0, 0.0, 0.0, 0.0)",0.4951171875,0.681640625,-0.1787109375,"(0.0, 0.0, 0.0, 0.0, 0.0, 0.0, 0.0, 0.0, 0.0)"
2022/11/28/23:08:17.716453,8984,1669698497,716035366,RU_myo,0.6963309254086777,0.31029419097008654,-0.5508881525759246,-0.3396512928301596,"(0.0, 0.0, 0.0, 0.0, 0.0, 0.0, 0.0, 0.0, 0.0)",63.5625,43.75,13.3125,"(0.0, 0.0, 0.0, 0.0, 0.0, 0.0, 0.0, 0.0, 0.0)",0.5791015625,0.76123046875,-0.10302734375,"(0.0, 0.0, 0.0, 0.0, 0.0, 0.0, 0.0, 0.0, 0.0)"
2022/11/28/23:08:17.738820,8985,1669698497,738491296,RU_myo,0.6964800153511528,0.3172643168692746,-0.5517029934939155,-0.3314856685103944,"(0.0, 0.0, 0.0, 0.0, 0.0, 0.0, 0.0, 0.0, 0.0)",43.0625,34.75,7.625,"(0.0, 0.0, 0.0, 0.0, 0.0, 0.0, 0.0, 0.0, 0.0)",0.63427734375,0.79248046875,-0.0224609375,"(0.0, 0.0, 0.0, 0.0, 0.0, 0.0, 0.0, 0.0, 0.0)"
2022/11/28/23:08:17.752817,8986,1669698497,752480030,RU_myo,0.6969584707856142,0.3214712554188484,-0.5519393511966293,-0.3259878441602562,"(0.0, 0.0, 0.0, 0.0, 0.0, 0.0, 0.0, 0.0, 0.0)",23.375,26.0625,7.6875,"(0.0, 0.0, 0.0, 0.0, 0.0, 0.0, 0.0, 0.0, 0.0)",0.57666015625,0.78125,-0.0029296875,"(0.0, 0.0, 0.0, 0.0, 0.0, 0.0, 0.0, 0.0, 0.0)"
2022/11/28/23:08:17.776435,8987,1669698497,776005983,RU_myo,0.6971449648965106,0.32385319416397174,-0.5526744578128089,-0.32196110049282906,"(0.0, 0.0, 0.0, 0.0, 0.0, 0.0, 0.0, 0.0, 0.0)",14.5,15.125,11.6875,"(0.0, 0.0, 0.0, 0.0, 0.0, 0.0, 0.0, 0.0, 0.0)",0.5546875,0.82861328125,0.0283203125,"(0.0, 0.0, 0.0, 0.0, 0.0, 0.0, 0.0, 0.0, 0.0)"
2022/11/28/23:08:17.799515,8988,1669698497,798728942,RU_myo,0.6978893996686585,0.3236756591256687,-0.5531112244006807,-0.3197693339919627,"(0.0, 0.0, 0.0, 0.0, 0.0, 0.0, 0.0, 0.0, 0.0)",-1.9375,9.875,10.8125,"(0.0, 0.0, 0.0, 0.0, 0.0, 0.0, 0.0, 0.0, 0.0)",0.57568359375,0.798828125,0.04638671875,"(0.0, 0.0, 0.0, 0.0, 0.0, 0.0, 0.0, 0.0, 0.0)"
2022/11/28/23:08:17.813205,8989,1669698497,812805891,RU_myo,0.6992248531094963,0.3222074021966682,-0.5524950567691307,-0.31939976050296737,"(0.0, 0.0, 0.0, 0.0, 0.0, 0.0, 0.0, 0.0, 0.0)",-11.1875,7.1875,4.875,"(0.0, 0.0, 0.0, 0.0, 0.0, 0.0, 0.0, 0.0, 0.0)",0.58544921875,0.77099609375,0.125,"(0.0, 0.0, 0.0, 0.0, 0.0, 0.0, 0.0, 0.0, 0.0)"
2022/11/28/23:08:17.836423,8990,1669698497,836054801,RU_myo,0.6999490989047675,0.3218374257520788,-0.5521834232465498,-0.3187246420021535,"(0.0, 0.0, 0.0, 0.0, 0.0, 0.0, 0.0, 0.0, 0.0)",-2.75,5.5,2.3125,"(0.0, 0.0, 0.0, 0.0, 0.0, 0.0, 0.0, 0.0, 0.0)",0.56884765625,0.74560546875,0.1455078125,"(0.0, 0.0, 0.0, 0.0, 0.0, 0.0, 0.0, 0.0, 0.0)"
2022/11/28/23:08:17.858945,8991,1669698497,858433723,RU_myo,0.7001231314525511,0.32250463138307733,-0.5526645414787595,-0.31682845221603984,"(0.0, 0.0, 0.0, 0.0, 0.0, 0.0, 0.0, 0.0, 0.0)",9.1875,3.4375,5.75,"(0.0, 0.0, 0.0, 0.0, 0.0, 0.0, 0.0, 0.0, 0.0)",0.56201171875,0.77294921875,0.1748046875,"(0.0, 0.0, 0.0, 0.0, 0.0, 0.0, 0.0, 0.0, 0.0)"
2022/11/28/23:08:17.874059,8992,1669698497,873746156,RU_myo,0.6995753092345396,0.32329876225923543,-0.5540084698937285,-0.31487602690115074,"(0.0, 0.0, 0.0, 0.0, 0.0, 0.0, 0.0, 0.0, 0.0)",10.125,-0.0625,6.1875,"(0.0, 0.0, 0.0, 0.0, 0.0, 0.0, 0.0, 0.0, 0.0)",0.5703125,0.787109375,0.1240234375,"(0.0, 0.0, 0.0, 0.0, 0.0, 0.0, 0.0, 0.0, 0.0)"
2022/11/28/23:08:17.896505,8993,1669698497,896148443,RU_myo,0.6991530553227364,0.323117963760678,-0.5552331160428575,-0.31384068183932873,"(0.0, 0.0, 0.0, 0.0, 0.0, 0.0, 0.0, 0.0, 0.0)",3.8125,-3.3125,5.375,"(0.0, 0.0, 0.0, 0.0, 0.0, 0.0, 0.0, 0.0, 0.0)",0.57861328125,0.78857421875,0.14453125,"(0.0, 0.0, 0.0, 0.0, 0.0, 0.0, 0.0, 0.0, 0.0)"
2022/11/28/23:08:17.919456,8994,1669698497,918789386,RU_myo,0.6989958254803662,0.32233644379687515,-0.556291298762492,-0.3131198554588088,"(0.0, 0.0, 0.0, 0.0, 0.0, 0.0, 0.0, 0.0, 0.0)",1.8125,-4.6875,4.8125,"(0.0, 0.0, 0.0, 0.0, 0.0, 0.0, 0.0, 0.0, 0.0)",0.5966796875,0.76904296875,0.17431640625,"(0.0, 0.0, 0.0, 0.0, 0.0, 0.0, 0.0, 0.0, 0.0)"
2022/11/28/23:08:17.932910,8995,1669698497,932485818,RU_myo,0.6988672202588957,0.3219672128266965,-0.5570795737382481,-0.3123844919899588,"(0.0, 0.0, 0.0, 0.0, 0.0, 0.0, 0.0, 0.0, 0.0)",3.1875,-2.9375,3.9375,"(0.0, 0.0, 0.0, 0.0, 0.0, 0.0, 0.0, 0.0, 0.0)",0.6025390625,0.79638671875,0.18212890625,"(0.0, 0.0, 0.0, 0.0, 0.0, 0.0, 0.0, 0.0, 0.0)"
2022/11/28/23:08:17.956852,8996,1669698497,956043481,RU_myo,0.6988699605562901,0.32141914517811565,-0.5576310881783639,-0.31195846012255013,"(0.0, 0.0, 0.0, 0.0, 0.0, 0.0, 0.0, 0.0, 0.0)",0.375,-2.4375,3.4375,"(0.0, 0.0, 0.0, 0.0, 0.0, 0.0, 0.0, 0.0, 0.0)",0.5966796875,0.8017578125,0.17724609375,"(0.0, 0.0, 0.0, 0.0, 0.0, 0.0, 0.0, 0.0, 0.0)"
2022/11/28/23:08:17.980100,8997,1669698497,979624271,RU_myo,0.6993356424404537,0.3201270243149048,-0.5577961630531774,-0.3119483739320264,"(0.0, 0.0, 0.0, 0.0, 0.0, 0.0, 0.0, 0.0, 0.0)",-4.25,-2.25,3.6875,"(0.0, 0.0, 0.0, 0.0, 0.0, 0.0, 0.0, 0.0, 0.0)",0.5966796875,0.77978515625,0.1923828125,"(0.0, 0.0, 0.0, 0.0, 0.0, 0.0, 0.0, 0.0, 0.0)"
2022/11/28/23:08:17.993185,8998,1669698497,992736816,RU_myo,0.7000637258769075,0.31902642503562295,-0.5575485733117306,-0.311885408825719,"(0.0, 0.0, 0.0, 0.0, 0.0, 0.0, 0.0, 0.0, 0.0)",-3.875,0.3125,2.6875,"(0.0, 0.0, 0.0, 0.0, 0.0, 0.0, 0.0, 0.0, 0.0)",0.59765625,0.771484375,0.21142578125,"(0.0, 0.0, 0.0, 0.0, 0.0, 0.0, 0.0, 0.0, 0.0)"
2022/11/28/23:08:18.016201,8999,1669698498,15804529,RU_myo,0.7007413201498749,0.3187851158560053,-0.5570042058782125,-0.3115830014254082,"(0.0, 0.0, 0.0, 0.0, 0.0, 0.0, 0.0, 0.0, 0.0)",0.1875,2.875,1.125,"(0.0, 0.0, 0.0, 0.0, 0.0, 0.0, 0.0, 0.0, 0.0)",0.58349609375,0.7685546875,0.21484375,"(0.0, 0.0, 0.0, 0.0, 0.0, 0.0, 0.0, 0.0, 0.0)"
2022/11/28/23:08:18.038647,9000,1669698498,38339853,RU_myo,0.7011049737215662,0.31890602313007604,-0.5568190715819491,-0.31097151920530863,"(0.0, 0.0, 0.0, 0.0, 0.0, 0.0, 0.0, 0.0, 0.0)",2.9375,2.3125,0.5625,"(0.0, 0.0, 0.0, 0.0, 0.0, 0.0, 0.0, 0.0, 0.0)",0.5859375,0.7578125,0.19287109375,"(0.0, 0.0, 0.0, 0.0, 0.0, 0.0, 0.0, 0.0, 0.0)"
2022/11/28/23:08:18.061879,9001,1669698498,61478614,RU_myo,0.7017308755962786,0.31891309254506006,-0.5564651989920215,-0.31018494474909,"(0.0, 0.0, 0.0, 0.0, 0.0, 0.0, 0.0, 0.0, 0.0)",3.875,2.75,2.1875,"(0.0, 0.0, 0.0, 0.0, 0.0, 0.0, 0.0, 0.0, 0.0)",0.61181640625,0.79736328125,0.23583984375,"(0.0, 0.0, 0.0, 0.0, 0.0, 0.0, 0.0, 0.0, 0.0)"
2022/11/28/23:08:18.076877,9002,1669698498,76428174,RU_myo,0.7031166012215742,0.3190269509188514,-0.5549250120057772,-0.30968868355887735,"(0.0, 0.0, 0.0, 0.0, 0.0, 0.0, 0.0, 0.0, 0.0)",-0.9375,10.1875,0.5,"(0.0, 0.0, 0.0, 0.0, 0.0, 0.0, 0.0, 0.0, 0.0)",0.60693359375,0.80859375,0.2275390625,"(0.0, 0.0, 0.0, 0.0, 0.0, 0.0, 0.0, 0.0, 0.0)"
2022/11/28/23:08:18.098807,9003,1669698498,98429918,RU_myo,0.7058256069544427,0.3184882408412558,-0.551403366761193,-0.3103703918508597,"(0.0, 0.0, 0.0, 0.0, 0.0, 0.0, 0.0, 0.0, 0.0)",-10.9375,17.3125,-3.125,"(0.0, 0.0, 0.0, 0.0, 0.0, 0.0, 0.0, 0.0, 0.0)",0.587890625,0.78662109375,0.27099609375,"(0.0, 0.0, 0.0, 0.0, 0.0, 0.0, 0.0, 0.0, 0.0)"
2022/11/28/23:08:18.119849,9004,1669698498,119370698,RU_myo,0.7094286120353818,0.3181228534740093,-0.5462777318864894,-0.3115919353386066,"(0.0, 0.0, 0.0, 0.0, 0.0, 0.0, 0.0, 0.0, 0.0)",-15.375,25.375,-6.75,"(0.0, 0.0, 0.0, 0.0, 0.0, 0.0, 0.0, 0.0, 0.0)",0.5712890625,0.78759765625,0.2978515625,"(0.0, 0.0, 0.0, 0.0, 0.0, 0.0, 0.0, 0.0, 0.0)"
2022/11/28/23:08:18.136319,9005,1669698498,136009454,RU_myo,0.7131295825885251,0.3180518876128727,-0.540462380505083,-0.31335221473891545,"(0.0, 0.0, 0.0, 0.0, 0.0, 0.0, 0.0, 0.0, 0.0)",-20.5,29.5625,-10.625,"(0.0, 0.0, 0.0, 0.0, 0.0, 0.0, 0.0, 0.0, 0.0)",0.5771484375,0.81494140625,0.2666015625,"(0.0, 0.0, 0.0, 0.0, 0.0, 0.0, 0.0, 0.0, 0.0)"
2022/11/28/23:08:18.159535,9006,1669698498,158682346,RU_myo,0.717572583763857,0.31621532333763236,-0.5343495764950726,-0.31554395322438894,"(0.0, 0.0, 0.0, 0.0, 0.0, 0.0, 0.0, 0.0, 0.0)",-32.125,31.5,-9.5625,"(0.0, 0.0, 0.0, 0.0, 0.0, 0.0, 0.0, 0.0, 0.0)",0.6123046875,0.7744140625,0.2470703125,"(0.0, 0.0, 0.0, 0.0, 0.0, 0.0, 0.0, 0.0, 0.0)"
2022/11/28/23:08:18.180412,9007,1669698498,179438114,RU_myo,0.7236735761640919,0.3131015809835364,-0.5264134767998053,-0.31804529015696065,"(0.0, 0.0, 0.0, 0.0, 0.0, 0.0, 0.0, 0.0, 0.0)",-40.625,39.25,-10.125,"(0.0, 0.0, 0.0, 0.0, 0.0, 0.0, 0.0, 0.0, 0.0)",0.650390625,0.7568359375,0.3359375,"(0.0, 0.0, 0.0, 0.0, 0.0, 0.0, 0.0, 0.0, 0.0)"
2022/11/28/23:08:18.196439,9008,1669698498,196116209,RU_myo,0.7305371140923974,0.30963445398869843,-0.5168508883059922,-0.3214143573239673,"(0.0, 0.0, 0.0, 0.0, 0.0, 0.0, 0.0, 0.0, 0.0)",-50.0,45.8125,-11.5,"(0.0, 0.0, 0.0, 0.0, 0.0, 0.0, 0.0, 0.0, 0.0)",0.619140625,0.791015625,0.35400390625,"(0.0, 0.0, 0.0, 0.0, 0.0, 0.0, 0.0, 0.0, 0.0)"
2022/11/28/23:08:18.217712,9009,1669698498,217549085,RU_myo,0.7376865984811811,0.3053653857522215,-0.5062973965250205,-0.32593467118066416,"(0.0, 0.0, 0.0, 0.0, 0.0, 0.0, 0.0, 0.0, 0.0)",-61.1875,48.0625,-12.3125,"(0.0, 0.0, 0.0, 0.0, 0.0, 0.0, 0.0, 0.0, 0.0)",0.59521484375,0.8408203125,0.36669921875,"(0.0, 0.0, 0.0, 0.0, 0.0, 0.0, 0.0, 0.0, 0.0)"
2022/11/28/23:08:18.239890,9010,1669698498,239192724,RU_myo,0.7452469730826417,0.2992584692075505,-0.4946950628038338,-0.3321567590102978,"(0.0, 0.0, 0.0, 0.0, 0.0, 0.0, 0.0, 0.0, 0.0)",-79.3125,48.75,-14.0,"(0.0, 0.0, 0.0, 0.0, 0.0, 0.0, 0.0, 0.0, 0.0)",0.5693359375,0.8447265625,0.349609375,"(0.0, 0.0, 0.0, 0.0, 0.0, 0.0, 0.0, 0.0, 0.0)"
2022/11/28/23:08:18.256184,9011,1669698498,255924701,RU_myo,0.7532323056083883,0.2911977416787635,-0.4821150621506085,-0.3397205261337241,"(0.0, 0.0, 0.0, 0.0, 0.0, 0.0, 0.0, 0.0, 0.0)",-93.9375,48.1875,-14.9375,"(0.0, 0.0, 0.0, 0.0, 0.0, 0.0, 0.0, 0.0, 0.0)",0.5556640625,0.82373046875,0.38037109375,"(0.0, 0.0, 0.0, 0.0, 0.0, 0.0, 0.0, 0.0, 0.0)"
2022/11/28/23:08:18.279025,9012,1669698498,278522968,RU_myo,0.7610636288996689,0.2828429590441147,-0.46930934658830337,-0.34717538865837816,"(0.0, 0.0, 0.0, 0.0, 0.0, 0.0, 0.0, 0.0, 0.0)",-94.75,48.8125,-17.0,"(0.0, 0.0, 0.0, 0.0, 0.0, 0.0, 0.0, 0.0, 0.0)",0.5546875,0.76611328125,0.4111328125,"(0.0, 0.0, 0.0, 0.0, 0.0, 0.0, 0.0, 0.0, 0.0)"
2022/11/28/23:08:18.300548,9013,1669698498,299479007,RU_myo,0.76789698763147,0.2755786423301873,-0.45771079486911953,-0.35339985361944287,"(0.0, 0.0, 0.0, 0.0, 0.0, 0.0, 0.0, 0.0, 0.0)",-83.25,46.25,-15.0625,"(0.0, 0.0, 0.0, 0.0, 0.0, 0.0, 0.0, 0.0, 0.0)",0.54296875,0.73583984375,0.40576171875,"(0.0, 0.0, 0.0, 0.0, 0.0, 0.0, 0.0, 0.0, 0.0)"
2022/11/28/23:08:18.315916,9014,1669698498,315655469,RU_myo,0.7730221084129402,0.2703898886908271,-0.4484321697994371,-0.35809875326164387,"(0.0, 0.0, 0.0, 0.0, 0.0, 0.0, 0.0, 0.0, 0.0)",-67.0,40.375,-13.375,"(0.0, 0.0, 0.0, 0.0, 0.0, 0.0, 0.0, 0.0, 0.0)",0.51708984375,0.71044921875,0.34130859375,"(0.0, 0.0, 0.0, 0.0, 0.0, 0.0, 0.0, 0.0, 0.0)"
2022/11/28/23:08:18.338609,9015,1669698498,338287591,RU_myo,0.7769728066523741,0.267271321314277,-0.44122045713197267,-0.36083764594884804,"(0.0, 0.0, 0.0, 0.0, 0.0, 0.0, 0.0, 0.0, 0.0)",-47.0,36.625,-9.875,"(0.0, 0.0, 0.0, 0.0, 0.0, 0.0, 0.0, 0.0, 0.0)",0.5244140625,0.70654296875,0.35107421875,"(0.0, 0.0, 0.0, 0.0, 0.0, 0.0, 0.0, 0.0, 0.0)"
2022/11/28/23:08:18.360021,9016,1669698498,359435796,RU_myo,0.7797868730669815,0.2661749024299551,-0.43603611624847494,-0.3618782381351075,"(0.0, 0.0, 0.0, 0.0, 0.0, 0.0, 0.0, 0.0, 0.0)",-26.6875,31.1875,-6.875,"(0.0, 0.0, 0.0, 0.0, 0.0, 0.0, 0.0, 0.0, 0.0)",0.5078125,0.67333984375,0.35986328125,"(0.0, 0.0, 0.0, 0.0, 0.0, 0.0, 0.0, 0.0, 0.0)"
2022/11/28/23:08:18.376332,9017,1669698498,375849246,RU_myo,0.7815495347724896,0.26708791598316395,-0.43230889143252976,-0.3618748294936424,"(0.0, 0.0, 0.0, 0.0, 0.0, 0.0, 0.0, 0.0, 0.0)",-8.625,25.9375,-6.6875,"(0.0, 0.0, 0.0, 0.0, 0.0, 0.0, 0.0, 0.0, 0.0)",0.4912109375,0.6767578125,0.39892578125,"(0.0, 0.0, 0.0, 0.0, 0.0, 0.0, 0.0, 0.0, 0.0)"
2022/11/28/23:08:18.398948,9018,1669698498,398693799,RU_myo,0.7821356167603205,0.2706406527794023,-0.4301929004937365,-0.3604879781946662,"(0.0, 0.0, 0.0, 0.0, 0.0, 0.0, 0.0, 0.0, 0.0)",10.375,23.3125,-5.625,"(0.0, 0.0, 0.0, 0.0, 0.0, 0.0, 0.0, 0.0, 0.0)",0.474609375,0.69775390625,0.3935546875,"(0.0, 0.0, 0.0, 0.0, 0.0, 0.0, 0.0, 0.0, 0.0)"
2022/11/28/23:08:18.419658,9019,1669698498,419230222,RU_myo,0.7817365717930127,0.27484070758775264,-0.4300527705226083,-0.3583366187536522,"(0.0, 0.0, 0.0, 0.0, 0.0, 0.0, 0.0, 0.0, 0.0)",20.75,14.9375,-3.0,"(0.0, 0.0, 0.0, 0.0, 0.0, 0.0, 0.0, 0.0, 0.0)",0.4736328125,0.7001953125,0.380859375,"(0.0, 0.0, 0.0, 0.0, 0.0, 0.0, 0.0, 0.0, 0.0)"
2022/11/28/23:08:18.436070,9020,1669698498,435859441,RU_myo,0.7809059145453272,0.2782061246285447,-0.43085937554912185,-0.3565774857569018,"(0.0, 0.0, 0.0, 0.0, 0.0, 0.0, 0.0, 0.0, 0.0)",17.9375,7.5625,-2.25,"(0.0, 0.0, 0.0, 0.0, 0.0, 0.0, 0.0, 0.0, 0.0)",0.4814453125,0.708984375,0.37255859375,"(0.0, 0.0, 0.0, 0.0, 0.0, 0.0, 0.0, 0.0, 0.0)"
2022/11/28/23:08:18.459611,9021,1669698498,459072589,RU_myo,0.7804726898667199,0.27991301757478515,-0.4316495552308941,-0.3552319586317596,"(0.0, 0.0, 0.0, 0.0, 0.0, 0.0, 0.0, 0.0, 0.0)",11.5625,3.125,0.625,"(0.0, 0.0, 0.0, 0.0, 0.0, 0.0, 0.0, 0.0, 0.0)",0.47216796875,0.697265625,0.4052734375,"(0.0, 0.0, 0.0, 0.0, 0.0, 0.0, 0.0, 0.0, 0.0)"
2022/11/28/23:08:18.480242,9022,1669698498,479306936,RU_myo,0.7800212928741136,0.28051469969087844,-0.43273481740825237,-0.3544275154710468,"(0.0, 0.0, 0.0, 0.0, 0.0, 0.0, 0.0, 0.0, 0.0)",8.125,-3.4375,2.3125,"(0.0, 0.0, 0.0, 0.0, 0.0, 0.0, 0.0, 0.0, 0.0)",0.455078125,0.6904296875,0.4443359375,"(0.0, 0.0, 0.0, 0.0, 0.0, 0.0, 0.0, 0.0, 0.0)"
2022/11/28/23:08:18.496334,9023,1669698498,495867967,RU_myo,0.7789844690606083,0.28063704369981013,-0.4351155903731941,-0.35369544763819044,"(0.0, 0.0, 0.0, 0.0, 0.0, 0.0, 0.0, 0.0, 0.0)",5.6875,-9.5,3.9375,"(0.0, 0.0, 0.0, 0.0, 0.0, 0.0, 0.0, 0.0, 0.0)",0.45654296875,0.69140625,0.37353515625,"(0.0, 0.0, 0.0, 0.0, 0.0, 0.0, 0.0, 0.0, 0.0)"
2022/11/28/23:08:18.518823,9024,1669698498,518410921,RU_myo,0.7783176826948465,0.2789907565556888,-0.43780369651585116,-0.3531482208337815,"(0.0, 0.0, 0.0, 0.0, 0.0, 0.0, 0.0, 0.0, 0.0)",-0.9375,-13.6875,7.1875,"(0.0, 0.0, 0.0, 0.0, 0.0, 0.0, 0.0, 0.0, 0.0)",0.50390625,0.70849609375,0.40966796875,"(0.0, 0.0, 0.0, 0.0, 0.0, 0.0, 0.0, 0.0, 0.0)"
2022/11/28/23:08:18.540170,9025,1669698498,539524078,RU_myo,0.7782030545959806,0.2768571808350877,-0.4399441268649277,-0.35241917154801505,"(0.0, 0.0, 0.0, 0.0, 0.0, 0.0, 0.0, 0.0, 0.0)",-1.125,-11.9375,7.625,"(0.0, 0.0, 0.0, 0.0, 0.0, 0.0, 0.0, 0.0, 0.0)",0.54541015625,0.708984375,0.482421875,"(0.0, 0.0, 0.0, 0.0, 0.0, 0.0, 0.0, 0.0, 0.0)"
2022/11/28/23:08:18.556341,9026,1669698498,555976629,RU_myo,0.778358230855884,0.27501624623513005,-0.4415152075599047,-0.3515520591021636,"(0.0, 0.0, 0.0, 0.0, 0.0, 0.0, 0.0, 0.0, 0.0)",-0.4375,-8.75,8.4375,"(0.0, 0.0, 0.0, 0.0, 0.0, 0.0, 0.0, 0.0, 0.0)",0.5322265625,0.71044921875,0.48974609375,"(0.0, 0.0, 0.0, 0.0, 0.0, 0.0, 0.0, 0.0, 0.0)"
2022/11/28/23:08:18.578968,9027,1669698498,578551769,RU_myo,0.7784006516538271,0.2741156846684966,-0.44276000369300256,-0.3505946320943764,"(0.0, 0.0, 0.0, 0.0, 0.0, 0.0, 0.0, 0.0, 0.0)",2.375,-7.125,8.5625,"(0.0, 0.0, 0.0, 0.0, 0.0, 0.0, 0.0, 0.0, 0.0)",0.513671875,0.76171875,0.5078125,"(0.0, 0.0, 0.0, 0.0, 0.0, 0.0, 0.0, 0.0, 0.0)"
2022/11/28/23:08:18.600079,9028,1669698498,599522113,RU_myo,0.7782816546565515,0.27362847289038666,-0.4437993813040378,-0.3499246118850294,"(0.0, 0.0, 0.0, 0.0, 0.0, 0.0, 0.0, 0.0, 0.0)",2.625,-5.5,6.25,"(0.0, 0.0, 0.0, 0.0, 0.0, 0.0, 0.0, 0.0, 0.0)",0.51904296875,0.78662109375,0.4990234375,"(0.0, 0.0, 0.0, 0.0, 0.0, 0.0, 0.0, 0.0, 0.0)"
2022/11/28/23:08:18.616260,9029,1669698498,615695714,RU_myo,0.7783751220825911,0.2728249663380524,-0.4443323836557095,-0.3496676134565329,"(0.0, 0.0, 0.0, 0.0, 0.0, 0.0, 0.0, 0.0, 0.0)",-0.8125,-4.375,4.0625,"(0.0, 0.0, 0.0, 0.0, 0.0, 0.0, 0.0, 0.0, 0.0)",0.5283203125,0.77587890625,0.50537109375,"(0.0, 0.0, 0.0, 0.0, 0.0, 0.0, 0.0, 0.0, 0.0)"
2022/11/28/23:08:18.638814,9030,1669698498,638344049,RU_myo,0.778634562985694,0.27228100536796906,-0.444158008532327,-0.34973552135361186,"(0.0, 0.0, 0.0, 0.0, 0.0, 0.0, 0.0, 0.0, 0.0)",-0.9375,-1.625,1.5,"(0.0, 0.0, 0.0, 0.0, 0.0, 0.0, 0.0, 0.0, 0.0)",0.52197265625,0.7646484375,0.52294921875,"(0.0, 0.0, 0.0, 0.0, 0.0, 0.0, 0.0, 0.0, 0.0)"
2022/11/28/23:08:18.661420,9031,1669698498,661014318,RU_myo,0.7788675702891841,0.2727043573428473,-0.4435413081491655,-0.3496694859483376,"(0.0, 0.0, 0.0, 0.0, 0.0, 0.0, 0.0, 0.0, 0.0)",3.25,2.1875,-1.625,"(0.0, 0.0, 0.0, 0.0, 0.0, 0.0, 0.0, 0.0, 0.0)",0.5185546875,0.75927734375,0.529296875,"(0.0, 0.0, 0.0, 0.0, 0.0, 0.0, 0.0, 0.0, 0.0)"
2022/11/28/23:08:18.676706,9032,1669698498,676020383,RU_myo,0.7789581856501937,0.27356923586304405,-0.4428867415042944,-0.3496217275822214,"(0.0, 0.0, 0.0, 0.0, 0.0, 0.0, 0.0, 0.0, 0.0)",3.5,4.3125,-2.5625,"(0.0, 0.0, 0.0, 0.0, 0.0, 0.0, 0.0, 0.0, 0.0)",0.49951171875,0.74853515625,0.4814453125,"(0.0, 0.0, 0.0, 0.0, 0.0, 0.0, 0.0, 0.0, 0.0)"
2022/11/28/23:08:18.698639,9033,1669698498,698310136,RU_myo,0.779054575825902,0.2739874640302784,-0.4423228228619799,-0.3497933072750113,"(0.0, 0.0, 0.0, 0.0, 0.0, 0.0, 0.0, 0.0, 0.0)",1.25,2.5625,-2.875,"(0.0, 0.0, 0.0, 0.0, 0.0, 0.0, 0.0, 0.0, 0.0)",0.49951171875,0.72900390625,0.478515625,"(0.0, 0.0, 0.0, 0.0, 0.0, 0.0, 0.0, 0.0, 0.0)"
2022/11/28/23:08:18.722234,9034,1669698498,721379518,RU_myo,0.7791170986340247,0.27453730588764924,-0.44177434860266906,-0.3499160459435067,"(0.0, 0.0, 0.0, 0.0, 0.0, 0.0, 0.0, 0.0, 0.0)",2.5,3.125,-3.1875,"(0.0, 0.0, 0.0, 0.0, 0.0, 0.0, 0.0, 0.0, 0.0)",0.50439453125,0.728515625,0.48583984375,"(0.0, 0.0, 0.0, 0.0, 0.0, 0.0, 0.0, 0.0, 0.0)"
2022/11/28/23:08:18.736303,9035,1669698498,735822916,RU_myo,0.7791941922260648,0.27521436728398296,-0.4413561964583013,-0.3497401473801779,"(0.0, 0.0, 0.0, 0.0, 0.0, 0.0, 0.0, 0.0, 0.0)",3.875,3.3125,-2.5625,"(0.0, 0.0, 0.0, 0.0, 0.0, 0.0, 0.0, 0.0, 0.0)",0.49951171875,0.71337890625,0.4677734375,"(0.0, 0.0, 0.0, 0.0, 0.0, 0.0, 0.0, 0.0, 0.0)"
2022/11/28/23:08:18.759171,9036,1669698498,758662462,RU_myo,0.7789894676132405,0.2760001858925859,-0.4412829155248554,-0.3496694084428626,"(0.0, 0.0, 0.0, 0.0, 0.0, 0.0, 0.0, 0.0, 0.0)",3.25,2.3125,-2.625,"(0.0, 0.0, 0.0, 0.0, 0.0, 0.0, 0.0, 0.0, 0.0)",0.49609375,0.734375,0.443359375,"(0.0, 0.0, 0.0, 0.0, 0.0, 0.0, 0.0, 0.0, 0.0)"
2022/11/28/23:08:18.781563,9037,1669698498,781136274,RU_myo,0.7789851089280132,0.27599864158681153,-0.4413414810513565,-0.3496064172952801,"(0.0, 0.0, 0.0, 0.0, 0.0, 0.0, 0.0, 0.0, 0.0)",0.875,0.6875,-1.0,"(0.0, 0.0, 0.0, 0.0, 0.0, 0.0, 0.0, 0.0, 0.0)",0.5107421875,0.73291015625,0.43994140625,"(0.0, 0.0, 0.0, 0.0, 0.0, 0.0, 0.0, 0.0, 0.0)"
2022/11/28/23:08:18.796020,9038,1669698498,795718193,RU_myo,0.7791497168237133,0.27544279116602055,-0.4414530707963276,-0.3495370850892532,"(0.0, 0.0, 0.0, 0.0, 0.0, 0.0, 0.0, 0.0, 0.0)",-2.0,-0.625,1.0,"(0.0, 0.0, 0.0, 0.0, 0.0, 0.0, 0.0, 0.0, 0.0)",0.505859375,0.71826171875,0.4521484375,"(0.0, 0.0, 0.0, 0.0, 0.0, 0.0, 0.0, 0.0, 0.0)"
2022/11/28/23:08:18.818841,9039,1669698498,818500518,RU_myo,0.7793734289424571,0.27478574493687385,-0.44159814851583346,-0.3493721910303567,"(0.0, 0.0, 0.0, 0.0, 0.0, 0.0, 0.0, 0.0, 0.0)",-1.5,-1.0625,1.6875,"(0.0, 0.0, 0.0, 0.0, 0.0, 0.0, 0.0, 0.0, 0.0)",0.5087890625,0.71044921875,0.46435546875,"(0.0, 0.0, 0.0, 0.0, 0.0, 0.0, 0.0, 0.0, 0.0)"
2022/11/28/23:08:18.841173,9040,1669698498,840807914,RU_myo,0.779427076864671,0.27472210438276307,-0.441593962499287,-0.3493078434531333,"(0.0, 0.0, 0.0, 0.0, 0.0, 0.0, 0.0, 0.0, 0.0)",0.0,-0.375,-0.375,"(0.0, 0.0, 0.0, 0.0, 0.0, 0.0, 0.0, 0.0, 0.0)",0.4990234375,0.71435546875,0.46044921875,"(0.0, 0.0, 0.0, 0.0, 0.0, 0.0, 0.0, 0.0, 0.0)"
2022/11/28/23:08:18.855636,9041,1669698498,855215311,RU_myo,0.7792534841459181,0.2747254587718945,-0.4420876467195805,-0.34906796238979443,"(0.0, 0.0, 0.0, 0.0, 0.0, 0.0, 0.0, 0.0, 0.0)",1.0625,-1.0,0.625,"(0.0, 0.0, 0.0, 0.0, 0.0, 0.0, 0.0, 0.0, 0.0)",0.51025390625,0.73291015625,0.43896484375,"(0.0, 0.0, 0.0, 0.0, 0.0, 0.0, 0.0, 0.0, 0.0)"
2022/11/28/23:08:18.879104,9042,1669698498,878540277,RU_myo,0.7791112691041779,0.27471835661871563,-0.442686567552887,-0.34863169362499524,"(0.0, 0.0, 0.0, 0.0, 0.0, 0.0, 0.0, 0.0, 0.0)",2.1875,-2.125,2.4375,"(0.0, 0.0, 0.0, 0.0, 0.0, 0.0, 0.0, 0.0, 0.0)",0.50732421875,0.74267578125,0.45654296875,"(0.0, 0.0, 0.0, 0.0, 0.0, 0.0, 0.0, 0.0, 0.0)"
2022/11/28/23:08:18.901174,9043,1669698498,900793075,RU_myo,0.779128032439186,0.2743580498091768,-0.4433064551199223,-0.3480898683118432,"(0.0, 0.0, 0.0, 0.0, 0.0, 0.0, 0.0, 0.0, 0.0)",1.875,-2.6875,3.4375,"(0.0, 0.0, 0.0, 0.0, 0.0, 0.0, 0.0, 0.0, 0.0)",0.51806640625,0.73876953125,0.47509765625,"(0.0, 0.0, 0.0, 0.0, 0.0, 0.0, 0.0, 0.0, 0.0)"
2022/11/28/23:08:18.915705,9044,1669698498,915376186,RU_myo,0.7792850523654292,0.2739216255495024,-0.44359678576064693,-0.3477120099722627,"(0.0, 0.0, 0.0, 0.0, 0.0, 0.0, 0.0, 0.0, 0.0)",0.75,-2.125,3.1875,"(0.0, 0.0, 0.0, 0.0, 0.0, 0.0, 0.0, 0.0, 0.0)",0.501953125,0.7314453125,0.48388671875,"(0.0, 0.0, 0.0, 0.0, 0.0, 0.0, 0.0, 0.0, 0.0)"
2022/11/28/23:08:18.939598,9045,1669698498,939087152,RU_myo,0.7793058370461761,0.27374582386842883,-0.443852760573292,-0.34747714053131895,"(0.0, 0.0, 0.0, 0.0, 0.0, 0.0, 0.0, 0.0, 0.0)",1.3125,-1.4375,1.875,"(0.0, 0.0, 0.0, 0.0, 0.0, 0.0, 0.0, 0.0, 0.0)",0.505859375,0.73583984375,0.47607421875,"(0.0, 0.0, 0.0, 0.0, 0.0, 0.0, 0.0, 0.0, 0.0)"
2022/11/28/23:08:18.962127,9046,1669698498,961680650,RU_myo,0.7793134900132109,0.27362643920185026,-0.44410126514224013,-0.34723640700854924,"(0.0, 0.0, 0.0, 0.0, 0.0, 0.0, 0.0, 0.0, 0.0)",1.4375,-1.4375,1.625,"(0.0, 0.0, 0.0, 0.0, 0.0, 0.0, 0.0, 0.0, 0.0)",0.51220703125,0.75,0.48095703125,"(0.0, 0.0, 0.0, 0.0, 0.0, 0.0, 0.0, 0.0, 0.0)"
2022/11/28/23:08:18.975668,9047,1669698498,975253582,RU_myo,0.7799889228667787,0.27326163296616074,-0.443615266561996,-0.3466278341779823,"(0.0, 0.0, 0.0, 0.0, 0.0, 0.0, 0.0, 0.0, 0.0)",1.6875,1.9375,2.9375,"(0.0, 0.0, 0.0, 0.0, 0.0, 0.0, 0.0, 0.0, 0.0)",0.54736328125,0.76611328125,0.55126953125,"(0.0, 0.0, 0.0, 0.0, 0.0, 0.0, 0.0, 0.0, 0.0)"
2022/11/28/23:08:18.998903,9048,1669698498,998449325,RU_myo,0.7820444504817091,0.273071635952171,-0.4415899164313717,-0.3447270004152574,"(0.0, 0.0, 0.0, 0.0, 0.0, 0.0, 0.0, 0.0, 0.0)",6.4375,11.9375,7.0625,"(0.0, 0.0, 0.0, 0.0, 0.0, 0.0, 0.0, 0.0, 0.0)",0.54736328125,0.720703125,0.6455078125,"(0.0, 0.0, 0.0, 0.0, 0.0, 0.0, 0.0, 0.0, 0.0)"
2022/11/28/23:08:19.021316,9049,1669698499,20836353,RU_myo,0.7855070558885255,0.27404247715147473,-0.4376745219717651,-0.3410577644370692,"(0.0, 0.0, 0.0, 0.0, 0.0, 0.0, 0.0, 0.0, 0.0)",15.4375,26.5625,10.5,"(0.0, 0.0, 0.0, 0.0, 0.0, 0.0, 0.0, 0.0, 0.0)",0.54443359375,0.671875,0.71826171875,"(0.0, 0.0, 0.0, 0.0, 0.0, 0.0, 0.0, 0.0, 0.0)"
2022/11/28/23:08:19.042422,9050,1669698499,41698932,RU_myo,0.789970495105375,0.2772800710240067,-0.43175857856566663,-0.33562912405041007,"(0.0, 0.0, 0.0, 0.0, 0.0, 0.0, 0.0, 0.0, 0.0)",26.125,43.8125,11.5625,"(0.0, 0.0, 0.0, 0.0, 0.0, 0.0, 0.0, 0.0, 0.0)",0.53955078125,0.6806640625,0.763671875,"(0.0, 0.0, 0.0, 0.0, 0.0, 0.0, 0.0, 0.0, 0.0)"
2022/11/28/23:08:19.058919,9051,1669698499,58508872,RU_myo,0.795894034581735,0.2822250012197809,-0.42303232773665683,-0.32855042853937727,"(0.0, 0.0, 0.0, 0.0, 0.0, 0.0, 0.0, 0.0, 0.0)",33.375,64.125,13.375,"(0.0, 0.0, 0.0, 0.0, 0.0, 0.0, 0.0, 0.0, 0.0)",0.53955078125,0.70166015625,0.85009765625,"(0.0, 0.0, 0.0, 0.0, 0.0, 0.0, 0.0, 0.0, 0.0)"
2022/11/28/23:08:19.081308,9052,1669698499,80982208,RU_myo,0.8031811910516751,0.28894747005385135,-0.4115700867285846,-0.31940475513134853,"(0.0, 0.0, 0.0, 0.0, 0.0, 0.0, 0.0, 0.0, 0.0)",40.6875,87.125,14.6875,"(0.0, 0.0, 0.0, 0.0, 0.0, 0.0, 0.0, 0.0, 0.0)",0.55419921875,0.6826171875,0.87890625,"(0.0, 0.0, 0.0, 0.0, 0.0, 0.0, 0.0, 0.0, 0.0)"
2022/11/28/23:08:19.102346,9053,1669698499,101853370,RU_myo,0.8107456391727847,0.29840664231843295,-0.39881141356282285,-0.30756209258387884,"(0.0, 0.0, 0.0, 0.0, 0.0, 0.0, 0.0, 0.0, 0.0)",40.5625,111.5625,22.75,"(0.0, 0.0, 0.0, 0.0, 0.0, 0.0, 0.0, 0.0, 0.0)",0.54345703125,0.61865234375,0.81689453125,"(0.0, 0.0, 0.0, 0.0, 0.0, 0.0, 0.0, 0.0, 0.0)"
2022/11/28/23:08:19.118842,9054,1669698499,118439912,RU_myo,0.8199717421851586,0.3076877737349549,-0.3828854204799389,-0.2938934002249172,"(0.0, 0.0, 0.0, 0.0, 0.0, 0.0, 0.0, 0.0, 0.0)",34.5,134.1875,29.3125,"(0.0, 0.0, 0.0, 0.0, 0.0, 0.0, 0.0, 0.0, 0.0)",0.5625,0.63232421875,0.77392578125,"(0.0, 0.0, 0.0, 0.0, 0.0, 0.0, 0.0, 0.0, 0.0)"
2022/11/28/23:08:19.141580,9055,1669698499,141149759,RU_myo,0.8298896417455581,0.316221095380138,-0.36517097349148153,-0.279172995612575,"(0.0, 0.0, 0.0, 0.0, 0.0, 0.0, 0.0, 0.0, 0.0)",28.3125,144.6875,33.5625,"(0.0, 0.0, 0.0, 0.0, 0.0, 0.0, 0.0, 0.0, 0.0)",0.55224609375,0.67626953125,0.76904296875,"(0.0, 0.0, 0.0, 0.0, 0.0, 0.0, 0.0, 0.0, 0.0)"
2022/11/28/23:08:19.162882,9056,1669698499,162157058,RU_myo,0.8401154791546881,0.32343591427206425,-0.34650796099688785,-0.2636805339979841,"(0.0, 0.0, 0.0, 0.0, 0.0, 0.0, 0.0, 0.0, 0.0)",19.8125,150.25,39.5,"(0.0, 0.0, 0.0, 0.0, 0.0, 0.0, 0.0, 0.0, 0.0)",0.52880859375,0.71533203125,0.66455078125,"(0.0, 0.0, 0.0, 0.0, 0.0, 0.0, 0.0, 0.0, 0.0)"
2022/11/28/23:08:19.178976,9057,1669698499,178592920,RU_myo,0.8514214122956999,0.32679835410647196,-0.3263100487585355,-0.24860846026814723,"(0.0, 0.0, 0.0, 0.0, 0.0, 0.0, 0.0, 0.0, 0.0)",-4.5,153.75,43.625,"(0.0, 0.0, 0.0, 0.0, 0.0, 0.0, 0.0, 0.0, 0.0)",0.51513671875,0.62451171875,0.56591796875,"(0.0, 0.0, 0.0, 0.0, 0.0, 0.0, 0.0, 0.0, 0.0)"
2022/11/28/23:08:19.201540,9058,1669698499,201198101,RU_myo,0.8633504785440135,0.327273613711771,-0.30493453452144864,-0.23352272399500854,"(0.0, 0.0, 0.0, 0.0, 0.0, 0.0, 0.0, 0.0, 0.0)",-20.6875,157.125,46.25,"(0.0, 0.0, 0.0, 0.0, 0.0, 0.0, 0.0, 0.0, 0.0)",0.509765625,0.4873046875,0.55078125,"(0.0, 0.0, 0.0, 0.0, 0.0, 0.0, 0.0, 0.0, 0.0)"
2022/11/28/23:08:19.222470,9059,1669698499,221892356,RU_myo,0.8732751946630217,0.3307666373019441,-0.28535412980007174,-0.21577044895042857,"(0.0, 0.0, 0.0, 0.0, 0.0, 0.0, 0.0, 0.0, 0.0)",4.8125,154.4375,55.125,"(0.0, 0.0, 0.0, 0.0, 0.0, 0.0, 0.0, 0.0, 0.0)",0.509765625,0.48095703125,0.54541015625,"(0.0, 0.0, 0.0, 0.0, 0.0, 0.0, 0.0, 0.0, 0.0)"
2022/11/28/23:08:19.239305,9060,1669698499,238873481,RU_myo,0.8796187996495215,0.34047003431025125,-0.2690555595624933,-0.19483333623490892,"(0.0, 0.0, 0.0, 0.0, 0.0, 0.0, 0.0, 0.0, 0.0)",50.6875,146.5625,62.9375,"(0.0, 0.0, 0.0, 0.0, 0.0, 0.0, 0.0, 0.0, 0.0)",0.4833984375,0.48486328125,0.43408203125,"(0.0, 0.0, 0.0, 0.0, 0.0, 0.0, 0.0, 0.0, 0.0)"
2022/11/28/23:08:19.261621,9061,1669698499,261187076,RU_myo,0.8821430817406457,0.35656817847705335,-0.25531062830700346,-0.17175331294666693,"(0.0, 0.0, 0.0, 0.0, 0.0, 0.0, 0.0, 0.0, 0.0)",94.75,139.375,64.375,"(0.0, 0.0, 0.0, 0.0, 0.0, 0.0, 0.0, 0.0, 0.0)",0.490234375,0.51806640625,0.322265625,"(0.0, 0.0, 0.0, 0.0, 0.0, 0.0, 0.0, 0.0, 0.0)"
2022/11/28/23:08:19.282416,9062,1669698499,281881570,RU_myo,0.8808695460517729,0.3762860831076206,-0.2458524481358468,-0.14843921396881318,"(0.0, 0.0, 0.0, 0.0, 0.0, 0.0, 0.0, 0.0, 0.0)",124.3125,116.5625,65.75,"(0.0, 0.0, 0.0, 0.0, 0.0, 0.0, 0.0, 0.0, 0.0)",0.49609375,0.6298828125,0.30908203125,"(0.0, 0.0, 0.0, 0.0, 0.0, 0.0, 0.0, 0.0, 0.0)"
2022/11/28/23:08:19.298866,9063,1669698499,298485279,RU_myo,0.876428749913295,0.398815060375616,-0.23895943700191866,-0.12536977869781377,"(0.0, 0.0, 0.0, 0.0, 0.0, 0.0, 0.0, 0.0, 0.0)",144.3125,100.8125,65.0,"(0.0, 0.0, 0.0, 0.0, 0.0, 0.0, 0.0, 0.0, 0.0)",0.4599609375,0.84912109375,0.1875,"(0.0, 0.0, 0.0, 0.0, 0.0, 0.0, 0.0, 0.0, 0.0)"
2022/11/28/23:08:19.321731,9064,1669698499,321378231,RU_myo,0.8724050130600196,0.41670111412305005,-0.23285700166682816,-0.10510609616521051,"(0.0, 0.0, 0.0, 0.0, 0.0, 0.0, 0.0, 0.0, 0.0)",114.75,88.0,59.8125,"(0.0, 0.0, 0.0, 0.0, 0.0, 0.0, 0.0, 0.0, 0.0)",0.43212890625,0.90283203125,0.09375,"(0.0, 0.0, 0.0, 0.0, 0.0, 0.0, 0.0, 0.0, 0.0)"
2022/11/28/23:08:19.342532,9065,1669698499,341834306,RU_myo,0.8687272641961079,0.4294502234865324,-0.2301672530937626,-0.08892964406194964,"(0.0, 0.0, 0.0, 0.0, 0.0, 0.0, 0.0, 0.0, 0.0)",67.1875,67.375,51.6875,"(0.0, 0.0, 0.0, 0.0, 0.0, 0.0, 0.0, 0.0, 0.0)",0.46630859375,0.9677734375,0.18701171875,"(0.0, 0.0, 0.0, 0.0, 0.0, 0.0, 0.0, 0.0, 0.0)"
2022/11/28/23:08:19.359239,9066,1669698499,358791351,RU_myo,0.865489110405088,0.43835985831659674,-0.22998328406250856,-0.07666109468750286,"(0.0, 0.0, 0.0, 0.0, 0.0, 0.0, 0.0, 0.0, 0.0)",47.625,42.25,43.5625,"(0.0, 0.0, 0.0, 0.0, 0.0, 0.0, 0.0, 0.0, 0.0)",0.47607421875,0.97021484375,0.25634765625,"(0.0, 0.0, 0.0, 0.0, 0.0, 0.0, 0.0, 0.0, 0.0)"
2022/11/28/23:08:19.381651,9067,1669698499,381159305,RU_myo,0.8649569316624623,0.4406879575614267,-0.23017095401165377,-0.06830052971069758,"(0.0, 0.0, 0.0, 0.0, 0.0, 0.0, 0.0, 0.0, 0.0)",10.6875,29.125,33.5,"(0.0, 0.0, 0.0, 0.0, 0.0, 0.0, 0.0, 0.0, 0.0)",0.4609375,0.8681640625,0.31982421875,"(0.0, 0.0, 0.0, 0.0, 0.0, 0.0, 0.0, 0.0, 0.0)"
2022/11/28/23:08:19.402200,9068,1669698499,401694059,RU_myo,0.8664724409653164,0.4378139489323904,-0.23144995041846153,-0.06305057984764524,"(0.0, 0.0, 0.0, 0.0, 0.0, 0.0, 0.0, 0.0, 0.0)",-18.0625,14.8125,27.4375,"(0.0, 0.0, 0.0, 0.0, 0.0, 0.0, 0.0, 0.0, 0.0)",0.458984375,0.8037109375,0.3837890625,"(0.0, 0.0, 0.0, 0.0, 0.0, 0.0, 0.0, 0.0, 0.0)"
2022/11/28/23:08:19.418372,9069,1669698499,418058633,RU_myo,0.8675254919396935,0.43501401400507955,-0.23383452892569942,-0.05902322878390794,"(0.0, 0.0, 0.0, 0.0, 0.0, 0.0, 0.0, 0.0, 0.0)",-15.125,5.5,23.3125,"(0.0, 0.0, 0.0, 0.0, 0.0, 0.0, 0.0, 0.0, 0.0)",0.4873046875,0.80224609375,0.44189453125,"(0.0, 0.0, 0.0, 0.0, 0.0, 0.0, 0.0, 0.0, 0.0)"
2022/11/28/23:08:19.447208,9070,1669698499,446677446,RU_myo,0.8688196856437554,0.43178519434058776,-0.23566901828512996,-0.056338384842573155,"(0.0, 0.0, 0.0, 0.0, 0.0, 0.0, 0.0, 0.0, 0.0)",-17.25,2.6875,16.75,"(0.0, 0.0, 0.0, 0.0, 0.0, 0.0, 0.0, 0.0, 0.0)",0.4638671875,0.77587890625,0.47412109375,"(0.0, 0.0, 0.0, 0.0, 0.0, 0.0, 0.0, 0.0, 0.0)"
2022/11/28/23:08:19.462675,9071,1669698499,462059497,RU_myo,0.8703788535485654,0.42804816970098797,-0.23718739304977032,-0.05438341925047487,"(0.0, 0.0, 0.0, 0.0, 0.0, 0.0, 0.0, 0.0, 0.0)",-19.625,1.3125,15.0,"(0.0, 0.0, 0.0, 0.0, 0.0, 0.0, 0.0, 0.0, 0.0)",0.43505859375,0.7529296875,0.5048828125,"(0.0, 0.0, 0.0, 0.0, 0.0, 0.0, 0.0, 0.0, 0.0)"
2022/11/28/23:08:19.478843,9072,1669698499,478521585,RU_myo,0.8708752248304432,0.4262210327299541,-0.2390207023013748,-0.05273592614616645,"(0.0, 0.0, 0.0, 0.0, 0.0, 0.0, 0.0, 0.0, 0.0)",-7.5,-3.25,12.375,"(0.0, 0.0, 0.0, 0.0, 0.0, 0.0, 0.0, 0.0, 0.0)",0.40771484375,0.7373046875,0.49951171875,"(0.0, 0.0, 0.0, 0.0, 0.0, 0.0, 0.0, 0.0, 0.0)"
2022/11/28/23:08:19.501519,9073,1669698499,500955104,RU_myo,0.8705007268746636,0.4260338713774472,-0.24109366646718,-0.05096537000002413,"(0.0, 0.0, 0.0, 0.0, 0.0, 0.0, 0.0, 0.0, 0.0)",3.125,-4.5,11.0,"(0.0, 0.0, 0.0, 0.0, 0.0, 0.0, 0.0, 0.0, 0.0)",0.4404296875,0.77197265625,0.52978515625,"(0.0, 0.0, 0.0, 0.0, 0.0, 0.0, 0.0, 0.0, 0.0)"
2022/11/28/23:08:19.522510,9074,1669698499,521948099,RU_myo,0.8700720136471383,0.426521447307345,-0.24206984259028766,-0.04956145037400746,"(0.0, 0.0, 0.0, 0.0, 0.0, 0.0, 0.0, 0.0, 0.0)",9.1875,-1.4375,5.5625,"(0.0, 0.0, 0.0, 0.0, 0.0, 0.0, 0.0, 0.0, 0.0)",0.4638671875,0.8330078125,0.62451171875,"(0.0, 0.0, 0.0, 0.0, 0.0, 0.0, 0.0, 0.0, 0.0)"
2022/11/28/23:08:19.538085,9075,1669698499,537671089,RU_myo,0.8704326521572795,0.42609146235957984,-0.24158000401363944,-0.049316989197327105,"(0.0, 0.0, 0.0, 0.0, 0.0, 0.0, 0.0, 0.0, 0.0)",0.8125,2.25,-0.9375,"(0.0, 0.0, 0.0, 0.0, 0.0, 0.0, 0.0, 0.0, 0.0)",0.42431640625,0.79638671875,0.61279296875,"(0.0, 0.0, 0.0, 0.0, 0.0, 0.0, 0.0, 0.0, 0.0)"
2022/11/28/23:08:19.561818,9076,1669698499,561202287,RU_myo,0.8717710847191087,0.4237089456080692,-0.24096844097675846,-0.04919467158745373,"(0.0, 0.0, 0.0, 0.0, 0.0, 0.0, 0.0, 0.0, 0.0)",-10.9375,4.25,0.1875,"(0.0, 0.0, 0.0, 0.0, 0.0, 0.0, 0.0, 0.0, 0.0)",0.41357421875,0.73828125,0.58544921875,"(0.0, 0.0, 0.0, 0.0, 0.0, 0.0, 0.0, 0.0, 0.0)"
2022/11/28/23:08:19.582559,9077,1669698499,581993818,RU_myo,0.8724469742553239,0.42261248424121045,-0.24035932451500389,-0.04962217644253381,"(0.0, 0.0, 0.0, 0.0, 0.0, 0.0, 0.0, 0.0, 0.0)",-6.25,2.0625,-2.0625,"(0.0, 0.0, 0.0, 0.0, 0.0, 0.0, 0.0, 0.0, 0.0)",0.37060546875,0.740234375,0.54248046875,"(0.0, 0.0, 0.0, 0.0, 0.0, 0.0, 0.0, 0.0, 0.0)"
2022/11/28/23:08:19.598749,9078,1669698499,598375082,RU_myo,0.8724743340680693,0.42256469950701303,-0.24030582434769757,-0.04980684599129317,"(0.0, 0.0, 0.0, 0.0, 0.0, 0.0, 0.0, 0.0, 0.0)",1.5625,0.75,-3.8125,"(0.0, 0.0, 0.0, 0.0, 0.0, 0.0, 0.0, 0.0, 0.0)",0.4169921875,0.74072265625,0.5546875,"(0.0, 0.0, 0.0, 0.0, 0.0, 0.0, 0.0, 0.0, 0.0)"
2022/11/28/23:08:19.621991,9079,1669698499,621141433,RU_myo,0.8723495203133634,0.42292959881411246,-0.24030507007232801,-0.04889112550874644,"(0.0, 0.0, 0.0, 0.0, 0.0, 0.0, 0.0, 0.0, 0.0)",9.125,3.4375,-2.0625,"(0.0, 0.0, 0.0, 0.0, 0.0, 0.0, 0.0, 0.0, 0.0)",0.45556640625,0.6884765625,0.5869140625,"(0.0, 0.0, 0.0, 0.0, 0.0, 0.0, 0.0, 0.0, 0.0)"
2022/11/28/23:08:19.644488,9080,1669698499,644011974,RU_myo,0.8720556320864764,0.42378961668484677,-0.24018610710858015,-0.047243722211446265,"(0.0, 0.0, 0.0, 0.0, 0.0, 0.0, 0.0, 0.0, 0.0)",11.75,4.5625,2.5,"(0.0, 0.0, 0.0, 0.0, 0.0, 0.0, 0.0, 0.0, 0.0)",0.42138671875,0.69873046875,0.56884765625,"(0.0, 0.0, 0.0, 0.0, 0.0, 0.0, 0.0, 0.0, 0.0)"
2022/11/28/23:08:19.658650,9081,1669698499,658362865,RU_myo,0.8715997387374177,0.4249353908326262,-0.2399951101341405,-0.04632662476902661,"(0.0, 0.0, 0.0, 0.0, 0.0, 0.0, 0.0, 0.0, 0.0)",8.3125,2.75,2.5,"(0.0, 0.0, 0.0, 0.0, 0.0, 0.0, 0.0, 0.0, 0.0)",0.3828125,0.77099609375,0.52783203125,"(0.0, 0.0, 0.0, 0.0, 0.0, 0.0, 0.0, 0.0, 0.0)"
2022/11/28/23:08:19.683079,9082,1669698499,681565046,RU_myo,0.8716174278203904,0.42494401487994105,-0.23993894319061307,-0.046205489696080924,"(0.0, 0.0, 0.0, 0.0, 0.0, 0.0, 0.0, 0.0, 0.0)",-1.3125,2.375,-1.0625,"(0.0, 0.0, 0.0, 0.0, 0.0, 0.0, 0.0, 0.0, 0.0)",0.4130859375,0.7783203125,0.5126953125,"(0.0, 0.0, 0.0, 0.0, 0.0, 0.0, 0.0, 0.0, 0.0)"
2022/11/28/23:08:19.703669,9083,1669698499,703271627,RU_myo,0.8722891911583748,0.42341824358446895,-0.24018318992430232,-0.046266545860894834,"(0.0, 0.0, 0.0, 0.0, 0.0, 0.0, 0.0, 0.0, 0.0)",-7.6875,0.3125,-0.75,"(0.0, 0.0, 0.0, 0.0, 0.0, 0.0, 0.0, 0.0, 0.0)",0.423828125,0.7294921875,0.53369140625,"(0.0, 0.0, 0.0, 0.0, 0.0, 0.0, 0.0, 0.0, 0.0)"
2022/11/28/23:08:19.725241,9084,1669698499,724337100,RU_myo,0.873041663150902,0.42144523797937494,-0.24096535836967012,-0.04602023308275868,"(0.0, 0.0, 0.0, 0.0, 0.0, 0.0, 0.0, 0.0, 0.0)",-7.5625,-1.125,1.375,"(0.0, 0.0, 0.0, 0.0, 0.0, 0.0, 0.0, 0.0, 0.0)",0.439453125,0.69580078125,0.55224609375,"(0.0, 0.0, 0.0, 0.0, 0.0, 0.0, 0.0, 0.0, 0.0)"
2022/11/28/23:08:19.741512,9085,1669698499,741085767,RU_myo,0.8734224161213466,0.42029257564022315,-0.24170180068766825,-0.04547167714957395,"(0.0, 0.0, 0.0, 0.0, 0.0, 0.0, 0.0, 0.0, 0.0)",-3.3125,-1.3125,2.9375,"(0.0, 0.0, 0.0, 0.0, 0.0, 0.0, 0.0, 0.0, 0.0)",0.4169921875,0.70849609375,0.54541015625,"(0.0, 0.0, 0.0, 0.0, 0.0, 0.0, 0.0, 0.0, 0.0)"
2022/11/28/23:08:19.764667,9086,1669698499,763384580,RU_myo,0.8735409910389328,0.41961950205370757,-0.24255533107802674,-0.04486113949228728,"(0.0, 0.0, 0.0, 0.0, 0.0, 0.0, 0.0, 0.0, 0.0)",-0.5,-1.9375,3.5625,"(0.0, 0.0, 0.0, 0.0, 0.0, 0.0, 0.0, 0.0, 0.0)",0.4306640625,0.74560546875,0.56103515625,"(0.0, 0.0, 0.0, 0.0, 0.0, 0.0, 0.0, 0.0, 0.0)"
2022/11/28/23:08:19.777829,9087,1669698499,777530193,RU_myo,0.8738200891581448,0.41878175689536407,-0.24317541458550215,-0.043886326076048206,"(0.0, 0.0, 0.0, 0.0, 0.0, 0.0, 0.0, 0.0, 0.0)",-0.0625,0.0,3.8125,"(0.0, 0.0, 0.0, 0.0, 0.0, 0.0, 0.0, 0.0, 0.0)",0.44775390625,0.7373046875,0.583984375,"(0.0, 0.0, 0.0, 0.0, 0.0, 0.0, 0.0, 0.0, 0.0)"
2022/11/28/23:08:19.800246,9088,1669698499,800034761,RU_myo,0.8743132418192666,0.4178685041534976,-0.24311572480914123,-0.04309307098048047,"(0.0, 0.0, 0.0, 0.0, 0.0, 0.0, 0.0, 0.0, 0.0)",-1.25,2.3125,3.0625,"(0.0, 0.0, 0.0, 0.0, 0.0, 0.0, 0.0, 0.0, 0.0)",0.42138671875,0.73388671875,0.58447265625,"(0.0, 0.0, 0.0, 0.0, 0.0, 0.0, 0.0, 0.0, 0.0)"
2022/11/28/23:08:19.825388,9089,1669698499,823858737,RU_myo,0.8747766817067962,0.4169410768028974,-0.243169850678194,-0.042359406719544836,"(0.0, 0.0, 0.0, 0.0, 0.0, 0.0, 0.0, 0.0, 0.0)",-2.5625,2.3125,3.3125,"(0.0, 0.0, 0.0, 0.0, 0.0, 0.0, 0.0, 0.0, 0.0)",0.41455078125,0.73388671875,0.55859375,"(0.0, 0.0, 0.0, 0.0, 0.0, 0.0, 0.0, 0.0, 0.0)"
2022/11/28/23:08:19.837945,9090,1669698499,837656021,RU_myo,0.8752618899062548,0.4158409522964654,-0.24341313925705327,-0.04174889349343642,"(0.0, 0.0, 0.0, 0.0, 0.0, 0.0, 0.0, 0.0, 0.0)",-5.5625,1.3125,3.6875,"(0.0, 0.0, 0.0, 0.0, 0.0, 0.0, 0.0, 0.0, 0.0)",0.42236328125,0.75146484375,0.548828125,"(0.0, 0.0, 0.0, 0.0, 0.0, 0.0, 0.0, 0.0, 0.0)"
2022/11/28/23:08:19.862364,9091,1669698499,860896110,RU_myo,0.8758342438224647,0.4146311253945224,-0.24348057694667305,-0.0413837631410991,"(0.0, 0.0, 0.0, 0.0, 0.0, 0.0, 0.0, 0.0, 0.0)",-5.5625,1.375,2.375,"(0.0, 0.0, 0.0, 0.0, 0.0, 0.0, 0.0, 0.0, 0.0)",0.42431640625,0.75927734375,0.57275390625,"(0.0, 0.0, 0.0, 0.0, 0.0, 0.0, 0.0, 0.0, 0.0)"
2022/11/28/23:08:19.883917,9092,1669698499,883476257,RU_myo,0.8766049942880944,0.41303342127472037,-0.24347426000662917,-0.04107750739144182,"(0.0, 0.0, 0.0, 0.0, 0.0, 0.0, 0.0, 0.0, 0.0)",-5.4375,0.75,2.0,"(0.0, 0.0, 0.0, 0.0, 0.0, 0.0, 0.0, 0.0, 0.0)",0.42138671875,0.72412109375,0.60107421875,"(0.0, 0.0, 0.0, 0.0, 0.0, 0.0, 0.0, 0.0, 0.0)"
2022/11/28/23:08:19.897992,9093,1669698499,897680521,RU_myo,0.8775911661820205,0.41096267366139544,-0.24353795750912932,-0.04040654833860742,"(0.0, 0.0, 0.0, 0.0, 0.0, 0.0, 0.0, 0.0, 0.0)",-7.6875,2.25,3.6875,"(0.0, 0.0, 0.0, 0.0, 0.0, 0.0, 0.0, 0.0, 0.0)",0.4345703125,0.7109375,0.60107421875,"(0.0, 0.0, 0.0, 0.0, 0.0, 0.0, 0.0, 0.0, 0.0)"
2022/11/28/23:08:19.928980,9094,1669698499,928587198,RU_myo,0.8783802795685329,0.40900745281000206,-0.2439640037131142,-0.04052842093207601,"(0.0, 0.0, 0.0, 0.0, 0.0, 0.0, 0.0, 0.0, 0.0)",-14.75,1.5,0.8125,"(0.0, 0.0, 0.0, 0.0, 0.0, 0.0, 0.0, 0.0, 0.0)",0.4560546875,0.76318359375,0.50634765625,"(0.0, 0.0, 0.0, 0.0, 0.0, 0.0, 0.0, 0.0, 0.0)"
2022/11/28/23:08:19.944500,9095,1669698499,943929672,RU_myo,0.8790612486243439,0.4069366299526802,-0.24457703258142938,-0.042848284719781235,"(0.0, 0.0, 0.0, 0.0, 0.0, 0.0, 0.0, 0.0, 0.0)",-23.0625,-2.75,-9.0,"(0.0, 0.0, 0.0, 0.0, 0.0, 0.0, 0.0, 0.0, 0.0)",0.48974609375,0.85595703125,0.48583984375,"(0.0, 0.0, 0.0, 0.0, 0.0, 0.0, 0.0, 0.0, 0.0)"
2022/11/28/23:08:19.964945,9096,1669698499,964409351,RU_myo,0.8789711981002976,0.405885595956321,-0.24572863298047345,-0.047790740095308176,"(0.0, 0.0, 0.0, 0.0, 0.0, 0.0, 0.0, 0.0, 0.0)",-23.3125,-8.625,-24.75,"(0.0, 0.0, 0.0, 0.0, 0.0, 0.0, 0.0, 0.0, 0.0)",0.5703125,0.9296875,0.470703125,"(0.0, 0.0, 0.0, 0.0, 0.0, 0.0, 0.0, 0.0, 0.0)"
2022/11/28/23:08:19.981991,9097,1669698499,981318235,RU_myo,0.8777810189621222,0.40651008874819095,-0.24708000589379533,-0.05658180965008604,"(0.0, 0.0, 0.0, 0.0, 0.0, 0.0, 0.0, 0.0, 0.0)",-24.125,-17.5625,-44.5625,"(0.0, 0.0, 0.0, 0.0, 0.0, 0.0, 0.0, 0.0, 0.0)",0.56787109375,1.017578125,0.4033203125,"(0.0, 0.0, 0.0, 0.0, 0.0, 0.0, 0.0, 0.0, 0.0)"
2022/11/28/23:08:20.004099,9098,1669698500,3706216,RU_myo,0.8758363860165554,0.40742963806958726,-0.24903564394365782,-0.06994971763711565,"(0.0, 0.0, 0.0, 0.0, 0.0, 0.0, 0.0, 0.0, 0.0)",-33.25,-32.0,-63.375,"(0.0, 0.0, 0.0, 0.0, 0.0, 0.0, 0.0, 0.0, 0.0)",0.5419921875,1.125,0.3623046875,"(0.0, 0.0, 0.0, 0.0, 0.0, 0.0, 0.0, 0.0, 0.0)"
2022/11/28/23:08:20.024909,9099,1669698500,24190664,RU_myo,0.8731410509587393,0.40791343191592133,-0.2515964636177507,-0.08905367307576377,"(0.0, 0.0, 0.0, 0.0, 0.0, 0.0, 0.0, 0.0, 0.0)",-45.0625,-49.375,-88.6875,"(0.0, 0.0, 0.0, 0.0, 0.0, 0.0, 0.0, 0.0, 0.0)",0.48193359375,1.11669921875,0.2783203125,"(0.0, 0.0, 0.0, 0.0, 0.0, 0.0, 0.0, 0.0, 0.0)"
2022/11/28/23:08:20.041602,9100,1669698500,40869712,RU_myo,0.871655072893311,0.40418037201172924,-0.25329938747337305,-0.11267245042791485,"(0.0, 0.0, 0.0, 0.0, 0.0, 0.0, 0.0, 0.0, 0.0)",-53.8125,-65.25,-110.3125,"(0.0, 0.0, 0.0, 0.0, 0.0, 0.0, 0.0, 0.0, 0.0)",0.501953125,1.01416015625,0.3251953125,"(0.0, 0.0, 0.0, 0.0, 0.0, 0.0, 0.0, 0.0, 0.0)"
2022/11/28/23:08:20.064074,9101,1669698500,63636302,RU_myo,0.8689305870360646,0.4001011518700059,-0.2556863043758131,-0.13965391845592273,"(0.0, 0.0, 0.0, 0.0, 0.0, 0.0, 0.0, 0.0, 0.0)",-55.4375,-77.6875,-127.125,"(0.0, 0.0, 0.0, 0.0, 0.0, 0.0, 0.0, 0.0, 0.0)",0.53955078125,0.904296875,0.35693359375,"(0.0, 0.0, 0.0, 0.0, 0.0, 0.0, 0.0, 0.0, 0.0)"
2022/11/28/23:08:20.084597,9102,1669698500,84149837,RU_myo,0.8646420195893803,0.3954550081123531,-0.25934377673551295,-0.16955919316809956,"(0.0, 0.0, 0.0, 0.0, 0.0, 0.0, 0.0, 0.0, 0.0)",-58.25,-93.5625,-139.75,"(0.0, 0.0, 0.0, 0.0, 0.0, 0.0, 0.0, 0.0, 0.0)",0.5205078125,0.85400390625,0.30029296875,"(0.0, 0.0, 0.0, 0.0, 0.0, 0.0, 0.0, 0.0, 0.0)"
2022/11/28/23:08:20.101273,9103,1669698500,100951194,RU_myo,0.8584439343820205,0.38973012805952795,-0.2648455795850105,-0.20258642052146802,"(0.0, 0.0, 0.0, 0.0, 0.0, 0.0, 0.0, 0.0, 0.0)",-62.125,-113.375,-151.25,"(0.0, 0.0, 0.0, 0.0, 0.0, 0.0, 0.0, 0.0, 0.0)",0.49658203125,0.81640625,0.27392578125,"(0.0, 0.0, 0.0, 0.0, 0.0, 0.0, 0.0, 0.0, 0.0)"
2022/11/28/23:08:20.123834,9104,1669698500,123451471,RU_myo,0.8508361352743288,0.3816555490581333,-0.2717914856798125,-0.2377946616232988,"(0.0, 0.0, 0.0, 0.0, 0.0, 0.0, 0.0, 0.0, 0.0)",-71.25,-130.4375,-157.75,"(0.0, 0.0, 0.0, 0.0, 0.0, 0.0, 0.0, 0.0, 0.0)",0.51318359375,0.794921875,0.33251953125,"(0.0, 0.0, 0.0, 0.0, 0.0, 0.0, 0.0, 0.0, 0.0)"
2022/11/28/23:08:20.144990,9105,1669698500,144344806,RU_myo,0.8426818936584753,0.36890984827407103,-0.27955114247108626,-0.2750343772870556,"(0.0, 0.0, 0.0, 0.0, 0.0, 0.0, 0.0, 0.0, 0.0)",-94.6875,-145.875,-159.5,"(0.0, 0.0, 0.0, 0.0, 0.0, 0.0, 0.0, 0.0, 0.0)",0.5029296875,0.7255859375,0.32080078125,"(0.0, 0.0, 0.0, 0.0, 0.0, 0.0, 0.0, 0.0, 0.0)"
2022/11/28/23:08:20.161266,9106,1669698500,160823345,RU_myo,0.833761268491047,0.34974026855444357,-0.2890697926481404,-0.3145831316107508,"(0.0, 0.0, 0.0, 0.0, 0.0, 0.0, 0.0, 0.0, 0.0)",-125.8125,-170.9375,-157.3125,"(0.0, 0.0, 0.0, 0.0, 0.0, 0.0, 0.0, 0.0, 0.0)",0.447265625,0.7060546875,0.2392578125,"(0.0, 0.0, 0.0, 0.0, 0.0, 0.0, 0.0, 0.0, 0.0)"
2022/11/28/23:08:20.183579,9107,1669698500,183290481,RU_myo,0.8236286016145425,0.3234332266159375,-0.2998730783853748,-0.3565150927842406,"(0.0, 0.0, 0.0, 0.0, 0.0, 0.0, 0.0, 0.0, 0.0)",-160.3125,-196.1875,-156.0,"(0.0, 0.0, 0.0, 0.0, 0.0, 0.0, 0.0, 0.0, 0.0)",0.4375,0.70263671875,0.20751953125,"(0.0, 0.0, 0.0, 0.0, 0.0, 0.0, 0.0, 0.0, 0.0)"
2022/11/28/23:08:20.204949,9108,1669698500,204318046,RU_myo,0.8124373607658739,0.29009952488319424,-0.3093865961777639,-0.4000846592908349,"(0.0, 0.0, 0.0, 0.0, 0.0, 0.0, 0.0, 0.0, 0.0)",-195.875,-209.5,-157.0625,"(0.0, 0.0, 0.0, 0.0, 0.0, 0.0, 0.0, 0.0, 0.0)",0.44970703125,0.6240234375,0.24462890625,"(0.0, 0.0, 0.0, 0.0, 0.0, 0.0, 0.0, 0.0, 0.0)"
2022/11/28/23:08:20.221116,9109,1669698500,220716953,RU_myo,0.799923615463839,0.25134178608882113,-0.3159777626473596,-0.4439679825182333,"(0.0, 0.0, 0.0, 0.0, 0.0, 0.0, 0.0, 0.0, 0.0)",-224.4375,-211.0625,-157.375,"(0.0, 0.0, 0.0, 0.0, 0.0, 0.0, 0.0, 0.0, 0.0)",0.50244140625,0.50146484375,0.33154296875,"(0.0, 0.0, 0.0, 0.0, 0.0, 0.0, 0.0, 0.0, 0.0)"
2022/11/28/23:08:20.244389,9110,1669698500,243949413,RU_myo,0.7851440971773993,0.20934734556269277,-0.31988030265133316,-0.48723611067841877,"(0.0, 0.0, 0.0, 0.0, 0.0, 0.0, 0.0, 0.0, 0.0)",-240.5625,-209.375,-158.8125,"(0.0, 0.0, 0.0, 0.0, 0.0, 0.0, 0.0, 0.0, 0.0)",0.55126953125,0.40087890625,0.37548828125,"(0.0, 0.0, 0.0, 0.0, 0.0, 0.0, 0.0, 0.0, 0.0)"
2022/11/28/23:08:20.264585,9111,1669698500,264238119,RU_myo,0.7671155551609192,0.1669367475624693,-0.32270368715275144,-0.5287042440168589,"(0.0, 0.0, 0.0, 0.0, 0.0, 0.0, 0.0, 0.0, 0.0)",-237.1875,-209.9375,-160.1875,"(0.0, 0.0, 0.0, 0.0, 0.0, 0.0, 0.0, 0.0, 0.0)",0.5458984375,0.2880859375,0.39599609375,"(0.0, 0.0, 0.0, 0.0, 0.0, 0.0, 0.0, 0.0, 0.0)"
2022/11/28/23:08:20.281556,9112,1669698500,280841588,RU_myo,0.7459062291626254,0.12359545978678639,-0.3266582226068547,-0.5671353147352193,"(0.0, 0.0, 0.0, 0.0, 0.0, 0.0, 0.0, 0.0, 0.0)",-227.125,-219.375,-155.0625,"(0.0, 0.0, 0.0, 0.0, 0.0, 0.0, 0.0, 0.0, 0.0)",0.6572265625,0.1884765625,0.47509765625,"(0.0, 0.0, 0.0, 0.0, 0.0, 0.0, 0.0, 0.0, 0.0)"
2022/11/28/23:08:20.304000,9113,1669698500,303464651,RU_myo,0.7225815876022219,0.08312831508693523,-0.331414648254081,-0.6009408152319855,"(0.0, 0.0, 0.0, 0.0, 0.0, 0.0, 0.0, 0.0, 0.0)",-198.5,-213.375,-149.0,"(0.0, 0.0, 0.0, 0.0, 0.0, 0.0, 0.0, 0.0, 0.0)",0.8662109375,0.0205078125,0.67041015625,"(0.0, 0.0, 0.0, 0.0, 0.0, 0.0, 0.0, 0.0, 0.0)"
2022/11/28/23:08:20.324740,9114,1669698500,324270963,RU_myo,0.697371653391306,0.047911495528809314,-0.33983593261708317,-0.629196952110185,"(0.0, 0.0, 0.0, 0.0, 0.0, 0.0, 0.0, 0.0, 0.0)",-150.625,-212.3125,-140.8125,"(0.0, 0.0, 0.0, 0.0, 0.0, 0.0, 0.0, 0.0, 0.0)",0.83349609375,-0.09130859375,0.72998046875,"(0.0, 0.0, 0.0, 0.0, 0.0, 0.0, 0.0, 0.0, 0.0)"
2022/11/28/23:08:20.341141,9115,1669698500,340859174,RU_myo,0.6734607424367475,0.020263636622167857,-0.3535760450368024,-0.6488636172598389,"(0.0, 0.0, 0.0, 0.0, 0.0, 0.0, 0.0, 0.0, 0.0)",-83.625,-204.875,-113.8125,"(0.0, 0.0, 0.0, 0.0, 0.0, 0.0, 0.0, 0.0, 0.0)",0.67919921875,-0.14306640625,0.85302734375,"(0.0, 0.0, 0.0, 0.0, 0.0, 0.0, 0.0, 0.0, 0.0)"
2022/11/28/23:08:20.363878,9116,1669698500,363441705,RU_myo,0.6522654289201791,0.0014037713918933394,-0.376271766566193,-0.6580025815653084,"(0.0, 0.0, 0.0, 0.0, 0.0, 0.0, 0.0, 0.0, 0.0)",4.5,-203.5,-77.875,"(0.0, 0.0, 0.0, 0.0, 0.0, 0.0, 0.0, 0.0, 0.0)",0.6015625,0.03515625,1.052734375,"(0.0, 0.0, 0.0, 0.0, 0.0, 0.0, 0.0, 0.0, 0.0)"
2022/11/28/23:08:20.384763,9117,1669698500,384291172,RU_myo,0.6348214538630103,-0.011535549925979131,-0.40502597517882283,-0.6578925537149686,"(0.0, 0.0, 0.0, 0.0, 0.0, 0.0, 0.0, 0.0, 0.0)",67.875,-194.9375,-42.1875,"(0.0, 0.0, 0.0, 0.0, 0.0, 0.0, 0.0, 0.0, 0.0)",0.62451171875,0.044921875,0.89013671875,"(0.0, 0.0, 0.0, 0.0, 0.0, 0.0, 0.0, 0.0, 0.0)"
2022/11/28/23:08:20.400912,9118,1669698500,400630950,RU_myo,0.6185223263882134,-0.02276582077588352,-0.4351750727400791,-0.6538612278070781,"(0.0, 0.0, 0.0, 0.0, 0.0, 0.0, 0.0, 0.0, 0.0)",85.125,-190.75,-25.375,"(0.0, 0.0, 0.0, 0.0, 0.0, 0.0, 0.0, 0.0, 0.0)",0.71337890625,0.37646484375,0.841796875,"(0.0, 0.0, 0.0, 0.0, 0.0, 0.0, 0.0, 0.0, 0.0)"
2022/11/28/23:08:20.425172,9119,1669698500,423725843,RU_myo,0.6040529948262958,-0.03424004547818045,-0.461538723540108,-0.6487908795598186,"(0.0, 0.0, 0.0, 0.0, 0.0, 0.0, 0.0, 0.0, 0.0)",73.3125,-175.8125,-13.3125,"(0.0, 0.0, 0.0, 0.0, 0.0, 0.0, 0.0, 0.0, 0.0)",0.783203125,0.51904296875,1.00732421875,"(0.0, 0.0, 0.0, 0.0, 0.0, 0.0, 0.0, 0.0, 0.0)"
2022/11/28/23:08:20.444820,9120,1669698500,444289207,RU_myo,0.5928297432518334,-0.042480129857230105,-0.48382182381934347,-0.6423898947519352,"(0.0, 0.0, 0.0, 0.0, 0.0, 0.0, 0.0, 0.0, 0.0)",75.8125,-145.4375,-3.25,"(0.0, 0.0, 0.0, 0.0, 0.0, 0.0, 0.0, 0.0, 0.0)",0.6826171875,0.51025390625,1.15966796875,"(0.0, 0.0, 0.0, 0.0, 0.0, 0.0, 0.0, 0.0, 0.0)"
2022/11/28/23:08:20.460825,9121,1669698500,460420846,RU_myo,0.5825093604716006,-0.05157380653798224,-0.5073763949707057,-0.6329235192886105,"(0.0, 0.0, 0.0, 0.0, 0.0, 0.0, 0.0, 0.0, 0.0)",84.625,-149.3125,12.75,"(0.0, 0.0, 0.0, 0.0, 0.0, 0.0, 0.0, 0.0, 0.0)",0.4951171875,0.3525390625,0.80126953125,"(0.0, 0.0, 0.0, 0.0, 0.0, 0.0, 0.0, 0.0, 0.0)"
2022/11/28/23:08:20.484514,9122,1669698500,484110593,RU_myo,0.5752373830716189,-0.06707542535763493,-0.5225047465757167,-0.6257728263801919,"(0.0, 0.0, 0.0, 0.0, 0.0, 0.0, 0.0, 0.0, 0.0)",28.0625,-132.25,31.75,"(0.0, 0.0, 0.0, 0.0, 0.0, 0.0, 0.0, 0.0, 0.0)",0.6787109375,0.0302734375,0.6181640625,"(0.0, 0.0, 0.0, 0.0, 0.0, 0.0, 0.0, 0.0, 0.0)"
2022/11/28/23:08:20.505909,9123,1669698500,504411220,RU_myo,0.5720776978122564,-0.07885675723604345,-0.535395878076295,-0.6163278131343395,"(0.0, 0.0, 0.0, 0.0, 0.0, 0.0, 0.0, 0.0, 0.0)",42.875,-101.1875,41.25,"(0.0, 0.0, 0.0, 0.0, 0.0, 0.0, 0.0, 0.0, 0.0)",0.8330078125,-0.0576171875,0.79541015625,"(0.0, 0.0, 0.0, 0.0, 0.0, 0.0, 0.0, 0.0, 0.0)"
2022/11/28/23:08:20.520633,9124,1669698500,520243644,RU_myo,0.5762846528440387,-0.08044303881046845,-0.556631649432073,-0.5929469818237488,"(0.0, 0.0, 0.0, 0.0, 0.0, 0.0, 0.0, 0.0, 0.0)",152.125,-78.0,78.0625,"(0.0, 0.0, 0.0, 0.0, 0.0, 0.0, 0.0, 0.0, 0.0)",0.72705078125,-0.13427734375,0.78125,"(0.0, 0.0, 0.0, 0.0, 0.0, 0.0, 0.0, 0.0, 0.0)"
2022/11/28/23:08:20.545703,9125,1669698500,544610023,RU_myo,0.5864024357568965,-0.0817228207200754,-0.5791395413090332,-0.560402494288075,"(0.0, 0.0, 0.0, 0.0, 0.0, 0.0, 0.0, 0.0, 0.0)",187.9375,-64.5,124.9375,"(0.0, 0.0, 0.0, 0.0, 0.0, 0.0, 0.0, 0.0, 0.0)",0.744140625,-0.2578125,0.572265625,"(0.0, 0.0, 0.0, 0.0, 0.0, 0.0, 0.0, 0.0, 0.0)"
2022/11/28/23:08:20.566256,9126,1669698500,565928936,RU_myo,0.5987299269082424,-0.08337054843594895,-0.6001336769917174,-0.5238429115854684,"(0.0, 0.0, 0.0, 0.0, 0.0, 0.0, 0.0, 0.0, 0.0)",190.8125,-51.8125,152.1875,"(0.0, 0.0, 0.0, 0.0, 0.0, 0.0, 0.0, 0.0, 0.0)",0.85498046875,0.11962890625,0.259765625,"(0.0, 0.0, 0.0, 0.0, 0.0, 0.0, 0.0, 0.0, 0.0)"
2022/11/28/23:08:20.580422,9127,1669698500,580054521,RU_myo,0.6107816459479988,-0.08227577283280726,-0.620120068235402,-0.4854148526256055,"(0.0, 0.0, 0.0, 0.0, 0.0, 0.0, 0.0, 0.0, 0.0)",201.3125,-41.0625,154.5625,"(0.0, 0.0, 0.0, 0.0, 0.0, 0.0, 0.0, 0.0, 0.0)",0.9345703125,0.556640625,0.16943359375,"(0.0, 0.0, 0.0, 0.0, 0.0, 0.0, 0.0, 0.0, 0.0)"
2022/11/28/23:08:20.603892,9128,1669698500,603489875,RU_myo,0.6216346602195522,-0.08660771554752524,-0.6345739383704156,-0.45098267102231426,"(0.0, 0.0, 0.0, 0.0, 0.0, 0.0, 0.0, 0.0, 0.0)",150.75,-37.5,160.3125,"(0.0, 0.0, 0.0, 0.0, 0.0, 0.0, 0.0, 0.0, 0.0)",1.046875,0.609375,0.0263671875,"(0.0, 0.0, 0.0, 0.0, 0.0, 0.0, 0.0, 0.0, 0.0)"
2022/11/28/23:08:20.626797,9129,1669698500,626427173,RU_myo,0.630665839397006,-0.09557947396648712,-0.6455581712283106,-0.41997596447215707,"(0.0, 0.0, 0.0, 0.0, 0.0, 0.0, 0.0, 0.0, 0.0)",111.1875,-40.875,163.25,"(0.0, 0.0, 0.0, 0.0, 0.0, 0.0, 0.0, 0.0, 0.0)",1.15087890625,0.681640625,-0.0751953125,"(0.0, 0.0, 0.0, 0.0, 0.0, 0.0, 0.0, 0.0, 0.0)"
2022/11/28/23:08:20.640671,9130,1669698500,640230655,RU_myo,0.6409862048092084,-0.09887618089801158,-0.6568552214965436,-0.3845795159496117,"(0.0, 0.0, 0.0, 0.0, 0.0, 0.0, 0.0, 0.0, 0.0)",151.125,-29.625,162.375,"(0.0, 0.0, 0.0, 0.0, 0.0, 0.0, 0.0, 0.0, 0.0)",1.126953125,0.6884765625,0.109375,"(0.0, 0.0, 0.0, 0.0, 0.0, 0.0, 0.0, 0.0, 0.0)"
2022/11/28/23:08:20.663988,9131,1669698500,663178682,RU_myo,0.653005563152747,-0.09124622085366454,-0.6704613619247525,-0.3402049732697834,"(0.0, 0.0, 0.0, 0.0, 0.0, 0.0, 0.0, 0.0, 0.0)",232.875,-14.75,153.125,"(0.0, 0.0, 0.0, 0.0, 0.0, 0.0, 0.0, 0.0, 0.0)",1.26904296875,0.45654296875,0.2138671875,"(0.0, 0.0, 0.0, 0.0, 0.0, 0.0, 0.0, 0.0, 0.0)"
2022/11/28/23:08:20.686207,9132,1669698500,685831069,RU_myo,0.6644072595061367,-0.07793937813607721,-0.6828392815868691,-0.29363065639206537,"(0.0, 0.0, 0.0, 0.0, 0.0, 0.0, 0.0, 0.0, 0.0)",259.4375,-3.1875,142.75,"(0.0, 0.0, 0.0, 0.0, 0.0, 0.0, 0.0, 0.0, 0.0)",1.2060546875,0.60693359375,0.1875,"(0.0, 0.0, 0.0, 0.0, 0.0, 0.0, 0.0, 0.0, 0.0)"
2022/11/28/23:08:20.700933,9133,1669698500,700478792,RU_myo,0.6722923847591481,-0.0676869954333087,-0.6896261148791297,-0.2604942258876118,"(0.0, 0.0, 0.0, 0.0, 0.0, 0.0, 0.0, 0.0, 0.0)",183.1875,7.125,107.625,"(0.0, 0.0, 0.0, 0.0, 0.0, 0.0, 0.0, 0.0, 0.0)",1.10302734375,0.982421875,0.04541015625,"(0.0, 0.0, 0.0, 0.0, 0.0, 0.0, 0.0, 0.0, 0.0)"
2022/11/28/23:08:20.724284,9134,1669698500,723682165,RU_myo,0.6765097328214569,-0.06597861973836114,-0.6900594586141638,-0.24859474393556424,"(0.0, 0.0, 0.0, 0.0, 0.0, 0.0, 0.0, 0.0, 0.0)",53.625,15.5,85.4375,"(0.0, 0.0, 0.0, 0.0, 0.0, 0.0, 0.0, 0.0, 0.0)",0.97216796875,0.84619140625,-0.0048828125,"(0.0, 0.0, 0.0, 0.0, 0.0, 0.0, 0.0, 0.0, 0.0)"
2022/11/28/23:08:20.746723,9135,1669698500,746252059,RU_myo,0.6808851138051535,-0.06701432905683566,-0.6896128451850511,-0.23735767368126945,"(0.0, 0.0, 0.0, 0.0, 0.0, 0.0, 0.0, 0.0, 0.0)",40.8125,13.875,64.125,"(0.0, 0.0, 0.0, 0.0, 0.0, 0.0, 0.0, 0.0, 0.0)",0.9990234375,0.3916015625,0.03173828125,"(0.0, 0.0, 0.0, 0.0, 0.0, 0.0, 0.0, 0.0, 0.0)"
2022/11/28/23:08:20.760536,9136,1669698500,760099887,RU_myo,0.6847463763033875,-0.06628349805379079,-0.6898122421767435,-0.22558361768582944,"(0.0, 0.0, 0.0, 0.0, 0.0, 0.0, 0.0, 0.0, 0.0)",51.25,10.375,50.125,"(0.0, 0.0, 0.0, 0.0, 0.0, 0.0, 0.0, 0.0, 0.0)",1.03125,0.25927734375,0.05029296875,"(0.0, 0.0, 0.0, 0.0, 0.0, 0.0, 0.0, 0.0, 0.0)"
2022/11/28/23:08:20.783501,9137,1669698500,783130884,RU_myo,0.687691195836556,-0.0631721299095443,-0.6900105590602881,-0.2167383896703302,"(0.0, 0.0, 0.0, 0.0, 0.0, 0.0, 0.0, 0.0, 0.0)",48.125,10.3125,37.5,"(0.0, 0.0, 0.0, 0.0, 0.0, 0.0, 0.0, 0.0, 0.0)",1.05078125,0.3935546875,0.0556640625,"(0.0, 0.0, 0.0, 0.0, 0.0, 0.0, 0.0, 0.0, 0.0)"
2022/11/28/23:08:20.806473,9138,1669698500,806060552,RU_myo,0.689615727434663,-0.06066714161165192,-0.6902260608512792,-0.2105650287325947,"(0.0, 0.0, 0.0, 0.0, 0.0, 0.0, 0.0, 0.0, 0.0)",34.0625,10.9375,26.8125,"(0.0, 0.0, 0.0, 0.0, 0.0, 0.0, 0.0, 0.0, 0.0)",1.0439453125,0.369140625,-0.00634765625,"(0.0, 0.0, 0.0, 0.0, 0.0, 0.0, 0.0, 0.0, 0.0)"
2022/11/28/23:08:20.827885,9139,1669698500,826976537,RU_myo,0.6906751905116217,-0.059326288898665286,-0.6905531199583324,-0.20636027033578944,"(0.0, 0.0, 0.0, 0.0, 0.0, 0.0, 0.0, 0.0, 0.0)",21.9375,6.125,15.5,"(0.0, 0.0, 0.0, 0.0, 0.0, 0.0, 0.0, 0.0, 0.0)",1.0234375,0.25537109375,-0.00341796875,"(0.0, 0.0, 0.0, 0.0, 0.0, 0.0, 0.0, 0.0, 0.0)"
2022/11/28/23:08:20.844033,9140,1669698500,843135833,RU_myo,0.6912750055981196,-0.05853193805126229,-0.6909087995206352,-0.20336644169635656,"(0.0, 0.0, 0.0, 0.0, 0.0, 0.0, 0.0, 0.0, 0.0)",15.5,0.8125,9.9375,"(0.0, 0.0, 0.0, 0.0, 0.0, 0.0, 0.0, 0.0, 0.0)",1.005859375,0.212890625,0.03564453125,"(0.0, 0.0, 0.0, 0.0, 0.0, 0.0, 0.0, 0.0, 0.0)"
2022/11/28/23:08:20.867066,9141,1669698500,866157531,RU_myo,0.6909989295688747,-0.057985070496460636,-0.6918534463972436,-0.20123871308087446,"(0.0, 0.0, 0.0, 0.0, 0.0, 0.0, 0.0, 0.0, 0.0)",11.3125,-3.3125,5.375,"(0.0, 0.0, 0.0, 0.0, 0.0, 0.0, 0.0, 0.0, 0.0)",0.9833984375,0.19384765625,0.01416015625,"(0.0, 0.0, 0.0, 0.0, 0.0, 0.0, 0.0, 0.0, 0.0)"
2022/11/28/23:08:20.886940,9142,1669698500,886545181,RU_myo,0.6902511218278226,-0.0572513531058889,-0.6929977219235208,-0.20007455808220023,"(0.0, 0.0, 0.0, 0.0, 0.0, 0.0, 0.0, 0.0, 0.0)",7.9375,-4.0625,1.75,"(0.0, 0.0, 0.0, 0.0, 0.0, 0.0, 0.0, 0.0, 0.0)",0.97119140625,0.21826171875,-0.0078125,"(0.0, 0.0, 0.0, 0.0, 0.0, 0.0, 0.0, 0.0, 0.0)"
2022/11/28/23:08:20.904058,9143,1669698500,903547763,RU_myo,0.6892107687968925,-0.05682387759032119,-0.6940325586246426,-0.2001958308230435,"(0.0, 0.0, 0.0, 0.0, 0.0, 0.0, 0.0, 0.0, 0.0)",1.3125,-4.1875,-2.75,"(0.0, 0.0, 0.0, 0.0, 0.0, 0.0, 0.0, 0.0, 0.0)",0.96923828125,0.21240234375,-0.0234375,"(0.0, 0.0, 0.0, 0.0, 0.0, 0.0, 0.0, 0.0, 0.0)"
2022/11/28/23:08:20.926455,9144,1669698500,926139116,RU_myo,0.6879862296128435,-0.05786115557780125,-0.6945780068305677,-0.20220886965111345,"(0.0, 0.0, 0.0, 0.0, 0.0, 0.0, 0.0, 0.0, 0.0)",-12.375,-6.375,-5.5,"(0.0, 0.0, 0.0, 0.0, 0.0, 0.0, 0.0, 0.0, 0.0)",0.9638671875,0.1962890625,0.0078125,"(0.0, 0.0, 0.0, 0.0, 0.0, 0.0, 0.0, 0.0, 0.0)"
2022/11/28/23:08:20.940303,9145,1669698500,939979791,RU_myo,0.6871314673603028,-0.059753216072636034,-0.6946387662131468,-0.20434501267741106,"(0.0, 0.0, 0.0, 0.0, 0.0, 0.0, 0.0, 0.0, 0.0)",-15.6875,-6.3125,-4.3125,"(0.0, 0.0, 0.0, 0.0, 0.0, 0.0, 0.0, 0.0, 0.0)",0.96484375,0.16455078125,0.04541015625,"(0.0, 0.0, 0.0, 0.0, 0.0, 0.0, 0.0, 0.0, 0.0)"
2022/11/28/23:08:20.963865,9146,1669698500,963406562,RU_myo,0.6865085060286364,-0.06237657300509125,-0.6943208361114658,-0.20672157805111943,"(0.0, 0.0, 0.0, 0.0, 0.0, 0.0, 0.0, 0.0, 0.0)",-19.75,-6.5625,-3.3125,"(0.0, 0.0, 0.0, 0.0, 0.0, 0.0, 0.0, 0.0, 0.0)",0.9638671875,0.14208984375,0.0732421875,"(0.0, 0.0, 0.0, 0.0, 0.0, 0.0, 0.0, 0.0, 0.0)"
2022/11/28/23:08:20.986227,9147,1669698500,985729932,RU_myo,0.6860747100127358,-0.06390180779141841,-0.6941921316328491,-0.20812336635027393,"(0.0, 0.0, 0.0, 0.0, 0.0, 0.0, 0.0, 0.0, 0.0)",-11.125,-5.5625,-4.375,"(0.0, 0.0, 0.0, 0.0, 0.0, 0.0, 0.0, 0.0, 0.0)",0.9677734375,0.1396484375,0.0712890625,"(0.0, 0.0, 0.0, 0.0, 0.0, 0.0, 0.0, 0.0, 0.0)"
2022/11/28/23:08:21.007624,9148,1669698501,7047891,RU_myo,0.6854909088629675,-0.06530810012317471,-0.6941579651409963,-0.2097183476852601,"(0.0, 0.0, 0.0, 0.0, 0.0, 0.0, 0.0, 0.0, 0.0)",-11.75,-5.5625,-3.5625,"(0.0, 0.0, 0.0, 0.0, 0.0, 0.0, 0.0, 0.0, 0.0)",0.9658203125,0.16455078125,0.05615234375,"(0.0, 0.0, 0.0, 0.0, 0.0, 0.0, 0.0, 0.0, 0.0)"
2022/11/28/23:08:21.023945,9149,1669698501,23528337,RU_myo,0.6849328849028811,-0.06738245454756556,-0.6938439703774686,-0.21191293676553227,"(0.0, 0.0, 0.0, 0.0, 0.0, 0.0, 0.0, 0.0, 0.0)",-17.0625,-4.5625,-1.625,"(0.0, 0.0, 0.0, 0.0, 0.0, 0.0, 0.0, 0.0, 0.0)",0.958984375,0.189453125,0.06005859375,"(0.0, 0.0, 0.0, 0.0, 0.0, 0.0, 0.0, 0.0, 0.0)"
2022/11/28/23:08:21.046701,9150,1669698501,46251773,RU_myo,0.6845663941157824,-0.07000692350666925,-0.6932333366946376,-0.21423217219564872,"(0.0, 0.0, 0.0, 0.0, 0.0, 0.0, 0.0, 0.0, 0.0)",-19.5625,-4.0,-0.75,"(0.0, 0.0, 0.0, 0.0, 0.0, 0.0, 0.0, 0.0, 0.0)",0.95849609375,0.17041015625,0.06640625,"(0.0, 0.0, 0.0, 0.0, 0.0, 0.0, 0.0, 0.0, 0.0)"
2022/11/28/23:08:21.067906,9151,1669698501,67098855,RU_myo,0.6836985978793705,-0.07177553571738436,-0.6933419096509238,-0.2160590105778407,"(0.0, 0.0, 0.0, 0.0, 0.0, 0.0, 0.0, 0.0, 0.0)",-14.625,-5.25,-5.125,"(0.0, 0.0, 0.0, 0.0, 0.0, 0.0, 0.0, 0.0, 0.0)",0.9873046875,0.14697265625,0.02490234375,"(0.0, 0.0, 0.0, 0.0, 0.0, 0.0, 0.0, 0.0, 0.0)"
2022/11/28/23:08:21.084107,9152,1669698501,83549022,RU_myo,0.6813376701304057,-0.07171654236345307,-0.6948264836302551,-0.2187507130473326,"(0.0, 0.0, 0.0, 0.0, 0.0, 0.0, 0.0, 0.0, 0.0)",-10.1875,-10.6875,-14.8125,"(0.0, 0.0, 0.0, 0.0, 0.0, 0.0, 0.0, 0.0, 0.0)",0.9765625,0.20068359375,-0.02392578125,"(0.0, 0.0, 0.0, 0.0, 0.0, 0.0, 0.0, 0.0, 0.0)"
2022/11/28/23:08:21.113758,9153,1669698501,113445043,RU_myo,0.6780234917167232,-0.07330148650209602,-0.6962115374932633,-0.2240547518311361,"(0.0, 0.0, 0.0, 0.0, 0.0, 0.0, 0.0, 0.0, 0.0)",-28.0,-13.1875,-16.375,"(0.0, 0.0, 0.0, 0.0, 0.0, 0.0, 0.0, 0.0, 0.0)",1.021484375,0.26318359375,-0.0595703125,"(0.0, 0.0, 0.0, 0.0, 0.0, 0.0, 0.0, 0.0, 0.0)"
2022/11/28/23:08:21.127429,9154,1669698501,126886606,RU_myo,0.6740450605979726,-0.07702325846383933,-0.6967492223638587,-0.23296178887200847,"(0.0, 0.0, 0.0, 0.0, 0.0, 0.0, 0.0, 0.0, 0.0)",-52.625,-12.9375,-20.0625,"(0.0, 0.0, 0.0, 0.0, 0.0, 0.0, 0.0, 0.0, 0.0)",1.064453125,0.3115234375,-0.0673828125,"(0.0, 0.0, 0.0, 0.0, 0.0, 0.0, 0.0, 0.0, 0.0)"
2022/11/28/23:08:21.143688,9155,1669698501,143306493,RU_myo,0.6688635815122739,-0.08172354554657675,-0.6970609512228926,-0.24504857010418646,"(0.0, 0.0, 0.0, 0.0, 0.0, 0.0, 0.0, 0.0, 0.0)",-71.125,-10.8125,-33.5625,"(0.0, 0.0, 0.0, 0.0, 0.0, 0.0, 0.0, 0.0, 0.0)",1.11376953125,0.29052734375,-0.15966796875,"(0.0, 0.0, 0.0, 0.0, 0.0, 0.0, 0.0, 0.0, 0.0)"
2022/11/28/23:08:21.166528,9156,1669698501,165994167,RU_myo,0.6631825344868456,-0.09002339760427915,-0.6952247607527754,-0.262196960073209,"(0.0, 0.0, 0.0, 0.0, 0.0, 0.0, 0.0, 0.0, 0.0)",-106.5,-15.4375,-36.125,"(0.0, 0.0, 0.0, 0.0, 0.0, 0.0, 0.0, 0.0, 0.0)",0.984375,0.47119140625,-0.19775390625,"(0.0, 0.0, 0.0, 0.0, 0.0, 0.0, 0.0, 0.0, 0.0)"
2022/11/28/23:08:21.187466,9157,1669698501,186752319,RU_myo,0.6572803120064392,-0.10021861568526078,-0.6914596206445306,-0.2825286065816517,"(0.0, 0.0, 0.0, 0.0, 0.0, 0.0, 0.0, 0.0, 0.0)",-129.0625,-11.8125,-37.9375,"(0.0, 0.0, 0.0, 0.0, 0.0, 0.0, 0.0, 0.0, 0.0)",0.92529296875,0.583984375,-0.107421875,"(0.0, 0.0, 0.0, 0.0, 0.0, 0.0, 0.0, 0.0, 0.0)"
2022/11/28/23:08:21.203547,9158,1669698501,203252553,RU_myo,0.6508723862950477,-0.11212045889197325,-0.685723111405182,-0.30590513879508435,"(0.0, 0.0, 0.0, 0.0, 0.0, 0.0, 0.0, 0.0, 0.0)",-150.6875,-10.0,-44.5625,"(0.0, 0.0, 0.0, 0.0, 0.0, 0.0, 0.0, 0.0, 0.0)",0.853515625,0.470703125,0.04736328125,"(0.0, 0.0, 0.0, 0.0, 0.0, 0.0, 0.0, 0.0, 0.0)"
2022/11/28/23:08:21.227842,9159,1669698501,227220296,RU_myo,0.6435348161394321,-0.12285997580507177,-0.6783848142440997,-0.33250926387780977,"(0.0, 0.0, 0.0, 0.0, 0.0, 0.0, 0.0, 0.0, 0.0)",-162.125,-3.375,-62.0625,"(0.0, 0.0, 0.0, 0.0, 0.0, 0.0, 0.0, 0.0, 0.0)",0.86865234375,0.4423828125,0.07470703125,"(0.0, 0.0, 0.0, 0.0, 0.0, 0.0, 0.0, 0.0, 0.0)"
2022/11/28/23:08:21.247633,9160,1669698501,246921300,RU_myo,0.6353684391126301,-0.13366540649919884,-0.6692425489788654,-0.36132383857317674,"(0.0, 0.0, 0.0, 0.0, 0.0, 0.0, 0.0, 0.0, 0.0)",-175.25,1.0,-71.625,"(0.0, 0.0, 0.0, 0.0, 0.0, 0.0, 0.0, 0.0, 0.0)",0.90478515625,0.41796875,0.091796875,"(0.0, 0.0, 0.0, 0.0, 0.0, 0.0, 0.0, 0.0, 0.0)"
2022/11/28/23:08:21.264364,9161,1669698501,263679265,RU_myo,0.6247542651141972,-0.1416012011591381,-0.6599714604024829,-0.3925160882131108,"(0.0, 0.0, 0.0, 0.0, 0.0, 0.0, 0.0, 0.0, 0.0)",-176.125,0.5,-97.3125,"(0.0, 0.0, 0.0, 0.0, 0.0, 0.0, 0.0, 0.0, 0.0)",0.99609375,0.400390625,0.10595703125,"(0.0, 0.0, 0.0, 0.0, 0.0, 0.0, 0.0, 0.0, 0.0)"
2022/11/28/23:08:21.286438,9162,1669698501,286154270,RU_myo,0.613145743346527,-0.14709150323164744,-0.6507425757078112,-0.42302539788321514,"(0.0, 0.0, 0.0, 0.0, 0.0, 0.0, 0.0, 0.0, 0.0)",-165.125,1.3125,-108.6875,"(0.0, 0.0, 0.0, 0.0, 0.0, 0.0, 0.0, 0.0, 0.0)",1.1455078125,0.36376953125,0.1435546875,"(0.0, 0.0, 0.0, 0.0, 0.0, 0.0, 0.0, 0.0, 0.0)"
2022/11/28/23:08:21.307522,9163,1669698501,306889772,RU_myo,0.6015475788903291,-0.14916622187580805,-0.642440119257265,-0.4507334486713758,"(0.0, 0.0, 0.0, 0.0, 0.0, 0.0, 0.0, 0.0, 0.0)",-139.5625,3.125,-113.0625,"(0.0, 0.0, 0.0, 0.0, 0.0, 0.0, 0.0, 0.0, 0.0)",1.0810546875,0.32421875,0.22900390625,"(0.0, 0.0, 0.0, 0.0, 0.0, 0.0, 0.0, 0.0, 0.0)"
2022/11/28/23:08:21.324609,9164,1669698501,323815584,RU_myo,0.5906790083603859,-0.1464185721281841,-0.6367590508600853,-0.4734953241227396,"(0.0, 0.0, 0.0, 0.0, 0.0, 0.0, 0.0, 0.0, 0.0)",-97.25,4.0,-115.0,"(0.0, 0.0, 0.0, 0.0, 0.0, 0.0, 0.0, 0.0, 0.0)",0.9833984375,0.283203125,0.28515625,"(0.0, 0.0, 0.0, 0.0, 0.0, 0.0, 0.0, 0.0, 0.0)"
2022/11/28/23:08:21.346659,9165,1669698501,346119403,RU_myo,0.5801970115756496,-0.14129561138203542,-0.6338466195258912,-0.49157445100255437,"(0.0, 0.0, 0.0, 0.0, 0.0, 0.0, 0.0, 0.0, 0.0)",-63.125,-1.8125,-110.5,"(0.0, 0.0, 0.0, 0.0, 0.0, 0.0, 0.0, 0.0, 0.0)",0.98583984375,0.2216796875,0.3369140625,"(0.0, 0.0, 0.0, 0.0, 0.0, 0.0, 0.0, 0.0, 0.0)"
2022/11/28/23:08:21.367002,9166,1669698501,366671562,RU_myo,0.5759864317776862,-0.136046811108664,-0.6293309418310609,-0.503660065172138,"(0.0, 0.0, 0.0, 0.0, 0.0, 0.0, 0.0, 0.0, 0.0)",-27.1875,5.0625,-95.25,"(0.0, 0.0, 0.0, 0.0, 0.0, 0.0, 0.0, 0.0, 0.0)",1.00048828125,0.09326171875,0.5078125,"(0.0, 0.0, 0.0, 0.0, 0.0, 0.0, 0.0, 0.0, 0.0)"
2022/11/28/23:08:21.391526,9167,1669698501,390912294,RU_myo,0.5772059774194824,-0.1287223650605571,-0.6232262065591979,-0.511715651336041,"(0.0, 0.0, 0.0, 0.0, 0.0, 0.0, 0.0, 0.0, 0.0)",-2.625,28.375,-71.1875,"(0.0, 0.0, 0.0, 0.0, 0.0, 0.0, 0.0, 0.0, 0.0)",1.0068359375,0.1416015625,0.61328125,"(0.0, 0.0, 0.0, 0.0, 0.0, 0.0, 0.0, 0.0, 0.0)"
2022/11/28/23:08:21.406382,9168,1669698501,405987501,RU_myo,0.5804383528804596,-0.1159656015218584,-0.6169980346234035,-0.5186103769111742,"(0.0, 0.0, 0.0, 0.0, 0.0, 0.0, 0.0, 0.0, 0.0)",21.3125,44.75,-62.75,"(0.0, 0.0, 0.0, 0.0, 0.0, 0.0, 0.0, 0.0, 0.0)",0.94189453125,0.42724609375,0.736328125,"(0.0, 0.0, 0.0, 0.0, 0.0, 0.0, 0.0, 0.0, 0.0)"
2022/11/28/23:08:21.427927,9169,1669698501,427121162,RU_myo,0.5835565039053372,-0.10333240886013345,-0.6112664351649358,-0.5245355710242096,"(0.0, 0.0, 0.0, 0.0, 0.0, 0.0, 0.0, 0.0, 0.0)",17.0625,55.6875,-55.625,"(0.0, 0.0, 0.0, 0.0, 0.0, 0.0, 0.0, 0.0, 0.0)",0.884765625,0.49072265625,0.5205078125,"(0.0, 0.0, 0.0, 0.0, 0.0, 0.0, 0.0, 0.0, 0.0)"
2022/11/28/23:08:21.443176,9170,1669698501,442742109,RU_myo,0.5895846116270308,-0.09063490147682617,-0.6022796011941552,-0.5305040832569515,"(0.0, 0.0, 0.0, 0.0, 0.0, 0.0, 0.0, 0.0, 0.0)",14.9375,72.8125,-54.5625,"(0.0, 0.0, 0.0, 0.0, 0.0, 0.0, 0.0, 0.0, 0.0)",0.9912109375,0.42822265625,0.66845703125,"(0.0, 0.0, 0.0, 0.0, 0.0, 0.0, 0.0, 0.0, 0.0)"
2022/11/28/23:08:21.466145,9171,1669698501,465825080,RU_myo,0.5981963696426148,-0.07079969276455803,-0.5967925826309037,-0.530082182465678,"(0.0, 0.0, 0.0, 0.0, 0.0, 0.0, 0.0, 0.0, 0.0)",61.5625,103.25,-43.5625,"(0.0, 0.0, 0.0, 0.0, 0.0, 0.0, 0.0, 0.0, 0.0)",0.982421875,0.2568359375,0.7158203125,"(0.0, 0.0, 0.0, 0.0, 0.0, 0.0, 0.0, 0.0, 0.0)"
2022/11/28/23:08:21.487048,9172,1669698501,486667871,RU_myo,0.610396550924183,-0.043822090147341605,-0.5943447268172877,-0.5217758338017039,"(0.0, 0.0, 0.0, 0.0, 0.0, 0.0, 0.0, 0.0, 0.0)",123.4375,125.625,-32.875,"(0.0, 0.0, 0.0, 0.0, 0.0, 0.0, 0.0, 0.0, 0.0)",0.93115234375,0.1728515625,0.58984375,"(0.0, 0.0, 0.0, 0.0, 0.0, 0.0, 0.0, 0.0, 0.0)"
2022/11/28/23:08:21.503177,9173,1669698501,502762317,RU_myo,0.6254799430628969,-0.006225502946176374,-0.5938031192485289,-0.5060967689185735,"(0.0, 0.0, 0.0, 0.0, 0.0, 0.0, 0.0, 0.0, 0.0)",190.75,160.4375,-34.5,"(0.0, 0.0, 0.0, 0.0, 0.0, 0.0, 0.0, 0.0, 0.0)",0.8662109375,0.185546875,0.466796875,"(0.0, 0.0, 0.0, 0.0, 0.0, 0.0, 0.0, 0.0, 0.0)"
2022/11/28/23:08:21.527213,9174,1669698501,525832891,RU_myo,0.6428866884321597,0.04052755730741043,-0.5938141642225844,-0.4821192397157153,"(0.0, 0.0, 0.0, 0.0, 0.0, 0.0, 0.0, 0.0, 0.0)",253.3125,193.5,-29.25,"(0.0, 0.0, 0.0, 0.0, 0.0, 0.0, 0.0, 0.0, 0.0)",0.84130859375,0.2451171875,0.4072265625,"(0.0, 0.0, 0.0, 0.0, 0.0, 0.0, 0.0, 0.0, 0.0)"
2022/11/28/23:08:21.549013,9175,1669698501,548457384,RU_myo,0.6591122892452306,0.09313874927199017,-0.5927066803278483,-0.45342579838900066,"(0.0, 0.0, 0.0, 0.0, 0.0, 0.0, 0.0, 0.0, 0.0)",285.5,213.625,-34.5,"(0.0, 0.0, 0.0, 0.0, 0.0, 0.0, 0.0, 0.0, 0.0)",0.8154296875,0.2890625,0.18359375,"(0.0, 0.0, 0.0, 0.0, 0.0, 0.0, 0.0, 0.0, 0.0)"
2022/11/28/23:08:21.562986,9176,1669698501,562594413,RU_myo,0.6712120598875161,0.14642518247432493,-0.5900342805249267,-0.4241386381884468,"(0.0, 0.0, 0.0, 0.0, 0.0, 0.0, 0.0, 0.0, 0.0)",286.5,208.375,-43.8125,"(0.0, 0.0, 0.0, 0.0, 0.0, 0.0, 0.0, 0.0, 0.0)",0.81298828125,0.51904296875,0.09716796875,"(0.0, 0.0, 0.0, 0.0, 0.0, 0.0, 0.0, 0.0, 0.0)"
2022/11/28/23:08:21.587370,9177,1669698501,585905075,RU_myo,0.6797646535684072,0.19714822941779253,-0.585707247521095,-0.39496786147446916,"(0.0, 0.0, 0.0, 0.0, 0.0, 0.0, 0.0, 0.0, 0.0)",274.75,195.6875,-44.5,"(0.0, 0.0, 0.0, 0.0, 0.0, 0.0, 0.0, 0.0, 0.0)",0.74267578125,0.6435546875,0.09326171875,"(0.0, 0.0, 0.0, 0.0, 0.0, 0.0, 0.0, 0.0, 0.0)"
2022/11/28/23:08:21.609243,9178,1669698501,608814954,RU_myo,0.6856309772935412,0.23804511808464437,-0.5806469764972364,-0.3689088958214335,"(0.0, 0.0, 0.0, 0.0, 0.0, 0.0, 0.0, 0.0, 0.0)",226.5625,164.5625,-31.5,"(0.0, 0.0, 0.0, 0.0, 0.0, 0.0, 0.0, 0.0, 0.0)",0.7041015625,0.55322265625,-0.03173828125,"(0.0, 0.0, 0.0, 0.0, 0.0, 0.0, 0.0, 0.0, 0.0)"
2022/11/28/23:08:21.623215,9179,1669698501,622866630,RU_myo,0.690056391858856,0.26806365408138116,-0.5748231999404481,-0.3486292331768783,"(0.0, 0.0, 0.0, 0.0, 0.0, 0.0, 0.0, 0.0, 0.0)",162.5625,133.1875,-20.5,"(0.0, 0.0, 0.0, 0.0, 0.0, 0.0, 0.0, 0.0, 0.0)",0.6279296875,0.5927734375,-0.18408203125,"(0.0, 0.0, 0.0, 0.0, 0.0, 0.0, 0.0, 0.0, 0.0)"
2022/11/28/23:08:21.647654,9180,1669698501,646219730,RU_myo,0.6932254034956958,0.28783685533418746,-0.5704858114522159,-0.33336830021953606,"(0.0, 0.0, 0.0, 0.0, 0.0, 0.0, 0.0, 0.0, 0.0)",108.4375,95.5,-6.0,"(0.0, 0.0, 0.0, 0.0, 0.0, 0.0, 0.0, 0.0, 0.0)",0.54931640625,0.62158203125,-0.328125,"(0.0, 0.0, 0.0, 0.0, 0.0, 0.0, 0.0, 0.0, 0.0)"
2022/11/28/23:08:21.669143,9181,1669698501,668796777,RU_myo,0.6949492274561551,0.30066045094405586,-0.5686669552265059,-0.3213514563987929,"(0.0, 0.0, 0.0, 0.0, 0.0, 0.0, 0.0, 0.0, 0.0)",61.375,75.3125,1.625,"(0.0, 0.0, 0.0, 0.0, 0.0, 0.0, 0.0, 0.0, 0.0)",0.619140625,0.69970703125,-0.255859375,"(0.0, 0.0, 0.0, 0.0, 0.0, 0.0, 0.0, 0.0, 0.0)"
2022/11/28/23:08:21.682962,9182,1669698501,682574510,RU_myo,0.6984250470952863,0.3096922737884718,-0.5642087857510117,-0.31298817106568455,"(0.0, 0.0, 0.0, 0.0, 0.0, 0.0, 0.0, 0.0, 0.0)",33.4375,71.8125,3.1875,"(0.0, 0.0, 0.0, 0.0, 0.0, 0.0, 0.0, 0.0, 0.0)",0.5576171875,0.7421875,-0.11572265625,"(0.0, 0.0, 0.0, 0.0, 0.0, 0.0, 0.0, 0.0, 0.0)"
2022/11/28/23:08:21.706507,9183,1669698501,706187248,RU_myo,0.70237905322622,0.3142029341335228,-0.5593764357680141,-0.3082826379775493,"(0.0, 0.0, 0.0, 0.0, 0.0, 0.0, 0.0, 0.0, 0.0)",4.3125,58.8125,2.125,"(0.0, 0.0, 0.0, 0.0, 0.0, 0.0, 0.0, 0.0, 0.0)",0.48974609375,0.6357421875,-0.1025390625,"(0.0, 0.0, 0.0, 0.0, 0.0, 0.0, 0.0, 0.0, 0.0)"
2022/11/28/23:08:21.729325,9184,1669698501,728553295,RU_myo,0.7061049826267418,0.31615730054512253,-0.5557776792980474,-0.3042556261037521,"(0.0, 0.0, 0.0, 0.0, 0.0, 0.0, 0.0, 0.0, 0.0)",-1.875,44.875,7.75,"(0.0, 0.0, 0.0, 0.0, 0.0, 0.0, 0.0, 0.0, 0.0)",0.49609375,0.60205078125,-0.03466796875,"(0.0, 0.0, 0.0, 0.0, 0.0, 0.0, 0.0, 0.0, 0.0)"
2022/11/28/23:08:21.743149,9185,1669698501,742775917,RU_myo,0.7079773325264157,0.31873934222372124,-0.5553828561650018,-0.29786441785747986,"(0.0, 0.0, 0.0, 0.0, 0.0, 0.0, 0.0, 0.0, 0.0)",17.0,32.5625,12.9375,"(0.0, 0.0, 0.0, 0.0, 0.0, 0.0, 0.0, 0.0, 0.0)",0.61328125,0.62890625,-0.02880859375,"(0.0, 0.0, 0.0, 0.0, 0.0, 0.0, 0.0, 0.0, 0.0)"
2022/11/28/23:08:21.765874,9186,1669698501,765683174,RU_myo,0.7091519693275855,0.32170927191029375,-0.5557739764779236,-0.2910702936331229,"(0.0, 0.0, 0.0, 0.0, 0.0, 0.0, 0.0, 0.0, 0.0)",26.125,25.8125,13.625,"(0.0, 0.0, 0.0, 0.0, 0.0, 0.0, 0.0, 0.0, 0.0)",0.66943359375,0.6923828125,0.048828125,"(0.0, 0.0, 0.0, 0.0, 0.0, 0.0, 0.0, 0.0, 0.0)"
2022/11/28/23:08:21.788966,9187,1669698501,788570880,RU_myo,0.7098455019693367,0.32495420915604034,-0.5560965063149292,-0.28509787959576716,"(0.0, 0.0, 0.0, 0.0, 0.0, 0.0, 0.0, 0.0, 0.0)",29.25,20.1875,10.9375,"(0.0, 0.0, 0.0, 0.0, 0.0, 0.0, 0.0, 0.0, 0.0)",0.65576171875,0.734375,0.11767578125,"(0.0, 0.0, 0.0, 0.0, 0.0, 0.0, 0.0, 0.0, 0.0)"
2022/11/28/23:08:21.809908,9188,1669698501,809359550,RU_myo,0.7090564263716262,0.3291677117519308,-0.5579310315454107,-0.27856878109323424,"(0.0, 0.0, 0.0, 0.0, 0.0, 0.0, 0.0, 0.0, 0.0)",37.1875,12.6875,16.0625,"(0.0, 0.0, 0.0, 0.0, 0.0, 0.0, 0.0, 0.0, 0.0)",0.61083984375,0.79931640625,0.06982421875,"(0.0, 0.0, 0.0, 0.0, 0.0, 0.0, 0.0, 0.0, 0.0)"
2022/11/28/23:08:21.826822,9189,1669698501,826497316,RU_myo,0.707689129521499,0.3318418108847253,-0.5601699724664353,-0.2743477910477911,"(0.0, 0.0, 0.0, 0.0, 0.0, 0.0, 0.0, 0.0, 0.0)",25.0,2.125,14.625,"(0.0, 0.0, 0.0, 0.0, 0.0, 0.0, 0.0, 0.0, 0.0)",0.609375,0.8701171875,0.0712890625,"(0.0, 0.0, 0.0, 0.0, 0.0, 0.0, 0.0, 0.0, 0.0)"
2022/11/28/23:08:21.849817,9190,1669698501,848563194,RU_myo,0.707827399273027,0.33123905284597027,-0.560915219394595,-0.27319439847771565,"(0.0, 0.0, 0.0, 0.0, 0.0, 0.0, 0.0, 0.0, 0.0)",-0.125,-0.125,9.3125,"(0.0, 0.0, 0.0, 0.0, 0.0, 0.0, 0.0, 0.0, 0.0)",0.61328125,0.80419921875,0.1181640625,"(0.0, 0.0, 0.0, 0.0, 0.0, 0.0, 0.0, 0.0, 0.0)"
2022/11/28/23:08:21.869652,9191,1669698501,869209766,RU_myo,0.7085558909460062,0.3292840926568786,-0.5607900358352921,-0.2739253026587713,"(0.0, 0.0, 0.0, 0.0, 0.0, 0.0, 0.0, 0.0, 0.0)",-11.0625,-1.8125,3.625,"(0.0, 0.0, 0.0, 0.0, 0.0, 0.0, 0.0, 0.0, 0.0)",0.60693359375,0.75146484375,0.16064453125,"(0.0, 0.0, 0.0, 0.0, 0.0, 0.0, 0.0, 0.0, 0.0)"
2022/11/28/23:08:21.886585,9192,1669698501,886295318,RU_myo,0.7086319310643461,0.3280093021136775,-0.5612291650419176,-0.2743583574620358,"(0.0, 0.0, 0.0, 0.0, 0.0, 0.0, 0.0, 0.0, 0.0)",-4.4375,-5.5,1.4375,"(0.0, 0.0, 0.0, 0.0, 0.0, 0.0, 0.0, 0.0, 0.0)",0.62744140625,0.75244140625,0.18115234375,"(0.0, 0.0, 0.0, 0.0, 0.0, 0.0, 0.0, 0.0, 0.0)"
2022/11/28/23:08:21.909061,9193,1669698501,908673286,RU_myo,0.7085706030317874,0.3270936223315832,-0.5619003334921728,-0.2742361718857628,"(0.0, 0.0, 0.0, 0.0, 0.0, 0.0, 0.0, 0.0, 0.0)",0.0625,-5.125,1.5,"(0.0, 0.0, 0.0, 0.0, 0.0, 0.0, 0.0, 0.0, 0.0)",0.6484375,0.7392578125,0.19140625,"(0.0, 0.0, 0.0, 0.0, 0.0, 0.0, 0.0, 0.0, 0.0)"
2022/11/28/23:08:21.923184,9194,1669698501,922679185,RU_myo,0.7086629002003695,0.3259812720670203,-0.5627922317412459,-0.2734922449227332,"(0.0, 0.0, 0.0, 0.0, 0.0, 0.0, 0.0, 0.0, 0.0)",-0.125,-3.6875,4.25,"(0.0, 0.0, 0.0, 0.0, 0.0, 0.0, 0.0, 0.0, 0.0)",0.63623046875,0.693359375,0.1552734375,"(0.0, 0.0, 0.0, 0.0, 0.0, 0.0, 0.0, 0.0, 0.0)"
2022/11/28/23:08:21.946097,9195,1669698501,945674657,RU_myo,0.7089703970073266,0.32573820668286,-0.5633433853630875,-0.2718452262629677,"(0.0, 0.0, 0.0, 0.0, 0.0, 0.0, 0.0, 0.0, 0.0)",7.75,0.125,4.125,"(0.0, 0.0, 0.0, 0.0, 0.0, 0.0, 0.0, 0.0, 0.0)",0.64794921875,0.69140625,0.19189453125,"(0.0, 0.0, 0.0, 0.0, 0.0, 0.0, 0.0, 0.0, 0.0)"
2022/11/28/23:08:21.968857,9196,1669698501,968549013,RU_myo,0.7091407160327394,0.3265257621804936,-0.5637604607964897,-0.26958211057032533,"(0.0, 0.0, 0.0, 0.0, 0.0, 0.0, 0.0, 0.0, 0.0)",13.0,2.5625,5.6875,"(0.0, 0.0, 0.0, 0.0, 0.0, 0.0, 0.0, 0.0, 0.0)",0.6533203125,0.75830078125,0.19384765625,"(0.0, 0.0, 0.0, 0.0, 0.0, 0.0, 0.0, 0.0, 0.0)"
2022/11/28/23:08:21.983518,9197,1669698501,982973337,RU_myo,0.7096239221334886,0.32664550023724354,-0.5636954110970069,-0.26829850878978373,"(0.0, 0.0, 0.0, 0.0, 0.0, 0.0, 0.0, 0.0, 0.0)",5.6875,2.5625,6.25,"(0.0, 0.0, 0.0, 0.0, 0.0, 0.0, 0.0, 0.0, 0.0)",0.63623046875,0.79931640625,0.19482421875,"(0.0, 0.0, 0.0, 0.0, 0.0, 0.0, 0.0, 0.0, 0.0)"
2022/11/28/23:08:22.007365,9198,1669698502,6058931,RU_myo,0.7106254492500254,0.32543630468102164,-0.5629828346544906,-0.26861312394995807,"(0.0, 0.0, 0.0, 0.0, 0.0, 0.0, 0.0, 0.0, 0.0)",-6.4375,1.75,3.25,"(0.0, 0.0, 0.0, 0.0, 0.0, 0.0, 0.0, 0.0, 0.0)",0.6259765625,0.7783203125,0.201171875,"(0.0, 0.0, 0.0, 0.0, 0.0, 0.0, 0.0, 0.0, 0.0)"
2022/11/28/23:08:22.030106,9199,1669698502,29713630,RU_myo,0.712041647509924,0.32367194040331965,-0.5617108933682351,-0.2696554087689735,"(0.0, 0.0, 0.0, 0.0, 0.0, 0.0, 0.0, 0.0, 0.0)",-11.5625,2.25,-0.3125,"(0.0, 0.0, 0.0, 0.0, 0.0, 0.0, 0.0, 0.0, 0.0)",0.6279296875,0.73193359375,0.21728515625,"(0.0, 0.0, 0.0, 0.0, 0.0, 0.0, 0.0, 0.0, 0.0)"
2022/11/28/23:08:22.050199,9200,1669698502,49508810,RU_myo,0.7126427437700678,0.3227522121493763,-0.5612153159443107,-0.27020121845410155,"(0.0, 0.0, 0.0, 0.0, 0.0, 0.0, 0.0, 0.0, 0.0)",-6.25,1.0,-1.8125,"(0.0, 0.0, 0.0, 0.0, 0.0, 0.0, 0.0, 0.0, 0.0)",0.6220703125,0.69775390625,0.17578125,"(0.0, 0.0, 0.0, 0.0, 0.0, 0.0, 0.0, 0.0, 0.0)"
2022/11/28/23:08:22.066130,9201,1669698502,65825939,RU_myo,0.7125705163052777,0.3228081765086607,-0.5615116702362788,-0.2697087033450126,"(0.0, 0.0, 0.0, 0.0, 0.0, 0.0, 0.0, 0.0, 0.0)",3.125,-0.625,0.0,"(0.0, 0.0, 0.0, 0.0, 0.0, 0.0, 0.0, 0.0, 0.0)",0.63818359375,0.728515625,0.16748046875,"(0.0, 0.0, 0.0, 0.0, 0.0, 0.0, 0.0, 0.0, 0.0)"
2022/11/28/23:08:22.088810,9202,1669698502,88430166,RU_myo,0.7127275898445713,0.32337336396305033,-0.5614782134949226,-0.2686843239270192,"(0.0, 0.0, 0.0, 0.0, 0.0, 0.0, 0.0, 0.0, 0.0)",7.625,1.6875,0.875,"(0.0, 0.0, 0.0, 0.0, 0.0, 0.0, 0.0, 0.0, 0.0)",0.6416015625,0.744140625,0.20166015625,"(0.0, 0.0, 0.0, 0.0, 0.0, 0.0, 0.0, 0.0, 0.0)"
2022/11/28/23:08:22.109782,9203,1669698502,109212636,RU_myo,0.713796878790691,0.3234210911254272,-0.5604175238183946,-0.26800188924924534,"(0.0, 0.0, 0.0, 0.0, 0.0, 0.0, 0.0, 0.0, 0.0)",3.25,5.8125,0.5625,"(0.0, 0.0, 0.0, 0.0, 0.0, 0.0, 0.0, 0.0, 0.0)",0.63427734375,0.72998046875,0.23681640625,"(0.0, 0.0, 0.0, 0.0, 0.0, 0.0, 0.0, 0.0, 0.0)"
2022/11/28/23:08:22.127243,9204,1669698502,126618623,RU_myo,0.7155737713981408,0.32269178858597497,-0.5587139460404794,-0.2676992972835419,"(0.0, 0.0, 0.0, 0.0, 0.0, 0.0, 0.0, 0.0, 0.0)",-3.8125,9.125,1.0,"(0.0, 0.0, 0.0, 0.0, 0.0, 0.0, 0.0, 0.0, 0.0)",0.64404296875,0.74169921875,0.24267578125,"(0.0, 0.0, 0.0, 0.0, 0.0, 0.0, 0.0, 0.0, 0.0)"
2022/11/28/23:08:22.149419,9205,1669698502,148938655,RU_myo,0.7177039830513801,0.3222618445880846,-0.5559016819144459,-0.2683684338359485,"(0.0, 0.0, 0.0, 0.0, 0.0, 0.0, 0.0, 0.0, 0.0)",-7.3125,12.25,-2.75,"(0.0, 0.0, 0.0, 0.0, 0.0, 0.0, 0.0, 0.0, 0.0)",0.6298828125,0.78076171875,0.26806640625,"(0.0, 0.0, 0.0, 0.0, 0.0, 0.0, 0.0, 0.0, 0.0)"
2022/11/28/23:08:22.169692,9206,1669698502,169199466,RU_myo,0.7213041350335343,0.3205524891856593,-0.5513844606441825,-0.27007706866842013,"(0.0, 0.0, 0.0, 0.0, 0.0, 0.0, 0.0, 0.0, 0.0)",-21.3125,21.0625,-6.3125,"(0.0, 0.0, 0.0, 0.0, 0.0, 0.0, 0.0, 0.0, 0.0)",0.64404296875,0.74169921875,0.2685546875,"(0.0, 0.0, 0.0, 0.0, 0.0, 0.0, 0.0, 0.0, 0.0)"
2022/11/28/23:08:22.186384,9207,1669698502,185923576,RU_myo,0.7263735767568054,0.31756337449505573,-0.5453447532410769,-0.27227565128242237,"(0.0, 0.0, 0.0, 0.0, 0.0, 0.0, 0.0, 0.0, 0.0)",-32.6875,29.0,-7.3125,"(0.0, 0.0, 0.0, 0.0, 0.0, 0.0, 0.0, 0.0, 0.0)",0.66455078125,0.71630859375,0.29248046875,"(0.0, 0.0, 0.0, 0.0, 0.0, 0.0, 0.0, 0.0, 0.0)"
2022/11/28/23:08:22.209255,9208,1669698502,208801746,RU_myo,0.732013199750799,0.3146442128504435,-0.5382826989579169,-0.2746041345517256,"(0.0, 0.0, 0.0, 0.0, 0.0, 0.0, 0.0, 0.0, 0.0)",-36.375,35.25,-8.0625,"(0.0, 0.0, 0.0, 0.0, 0.0, 0.0, 0.0, 0.0, 0.0)",0.67236328125,0.744140625,0.3056640625,"(0.0, 0.0, 0.0, 0.0, 0.0, 0.0, 0.0, 0.0, 0.0)"
2022/11/28/23:08:22.230252,9209,1669698502,229537963,RU_myo,0.7384206823890206,0.3112255793934217,-0.52991968627058,-0.27759441754879033,"(0.0, 0.0, 0.0, 0.0, 0.0, 0.0, 0.0, 0.0, 0.0)",-44.6875,41.625,-8.875,"(0.0, 0.0, 0.0, 0.0, 0.0, 0.0, 0.0, 0.0, 0.0)",0.66015625,0.77392578125,0.318359375,"(0.0, 0.0, 0.0, 0.0, 0.0, 0.0, 0.0, 0.0, 0.0)"
2022/11/28/23:08:22.246814,9210,1669698502,246069669,RU_myo,0.7454098577606106,0.30675754893186186,-0.5204380461086323,-0.28179458882180786,"(0.0, 0.0, 0.0, 0.0, 0.0, 0.0, 0.0, 0.0, 0.0)",-57.0,45.0,-9.5625,"(0.0, 0.0, 0.0, 0.0, 0.0, 0.0, 0.0, 0.0, 0.0)",0.62451171875,0.78564453125,0.32080078125,"(0.0, 0.0, 0.0, 0.0, 0.0, 0.0, 0.0, 0.0, 0.0)"
2022/11/28/23:08:22.269355,9211,1669698502,269035339,RU_myo,0.7523927501213443,0.3013355242434556,-0.5103843738553323,-0.287419279656154,"(0.0, 0.0, 0.0, 0.0, 0.0, 0.0, 0.0, 0.0, 0.0)",-66.6875,43.5625,-14.1875,"(0.0, 0.0, 0.0, 0.0, 0.0, 0.0, 0.0, 0.0, 0.0)",0.6162109375,0.78076171875,0.3486328125,"(0.0, 0.0, 0.0, 0.0, 0.0, 0.0, 0.0, 0.0, 0.0)"
2022/11/28/23:08:22.289587,9212,1669698502,289158582,RU_myo,0.7590419745512664,0.2959018569173802,-0.5002499214717095,-0.2933383507312148,"(0.0, 0.0, 0.0, 0.0, 0.0, 0.0, 0.0, 0.0, 0.0)",-67.4375,43.3125,-16.75,"(0.0, 0.0, 0.0, 0.0, 0.0, 0.0, 0.0, 0.0, 0.0)",0.6181640625,0.77197265625,0.35986328125,"(0.0, 0.0, 0.0, 0.0, 0.0, 0.0, 0.0, 0.0, 0.0)"
2022/11/28/23:08:22.306422,9213,1669698502,306034088,RU_myo,0.7650313009565411,0.2903505583732461,-0.49085541106530267,-0.29913981218988417,"(0.0, 0.0, 0.0, 0.0, 0.0, 0.0, 0.0, 0.0, 0.0)",-68.1875,40.5625,-17.125,"(0.0, 0.0, 0.0, 0.0, 0.0, 0.0, 0.0, 0.0, 0.0)",0.61572265625,0.7421875,0.33056640625,"(0.0, 0.0, 0.0, 0.0, 0.0, 0.0, 0.0, 0.0, 0.0)"
2022/11/28/23:08:22.328785,9214,1669698502,328369379,RU_myo,0.7705368952523283,0.28498390081852987,-0.48219593413287337,-0.30421070072382794,"(0.0, 0.0, 0.0, 0.0, 0.0, 0.0, 0.0, 0.0, 0.0)",-62.6875,38.0,-14.9375,"(0.0, 0.0, 0.0, 0.0, 0.0, 0.0, 0.0, 0.0, 0.0)",0.6240234375,0.73291015625,0.349609375,"(0.0, 0.0, 0.0, 0.0, 0.0, 0.0, 0.0, 0.0, 0.0)"
2022/11/28/23:08:22.349882,9215,1669698502,349234342,RU_myo,0.7755149198597101,0.28100666543633757,-0.474244524422316,-0.3077401405582133,"(0.0, 0.0, 0.0, 0.0, 0.0, 0.0, 0.0, 0.0, 0.0)",-49.25,37.8125,-12.4375,"(0.0, 0.0, 0.0, 0.0, 0.0, 0.0, 0.0, 0.0, 0.0)",0.60791015625,0.69775390625,0.37841796875,"(0.0, 0.0, 0.0, 0.0, 0.0, 0.0, 0.0, 0.0, 0.0)"
2022/11/28/23:08:22.372488,9216,1669698502,371679306,RU_myo,0.7797399086106803,0.27893631173000466,-0.4669283992854564,-0.31012590807443186,"(0.0, 0.0, 0.0, 0.0, 0.0, 0.0, 0.0, 0.0, 0.0)",-36.5625,38.5625,-12.125,"(0.0, 0.0, 0.0, 0.0, 0.0, 0.0, 0.0, 0.0, 0.0)",0.57177734375,0.6767578125,0.36474609375,"(0.0, 0.0, 0.0, 0.0, 0.0, 0.0, 0.0, 0.0, 0.0)"
2022/11/28/23:08:22.388548,9217,1669698502,388183832,RU_myo,0.7827232167189507,0.2785063972152661,-0.4613086456614028,-0.3114046983546543,"(0.0, 0.0, 0.0, 0.0, 0.0, 0.0, 0.0, 0.0, 0.0)",-22.25,33.8125,-11.0625,"(0.0, 0.0, 0.0, 0.0, 0.0, 0.0, 0.0, 0.0, 0.0)",0.56494140625,0.67724609375,0.345703125,"(0.0, 0.0, 0.0, 0.0, 0.0, 0.0, 0.0, 0.0, 0.0)"
2022/11/28/23:08:22.410085,9218,1669698502,409389257,RU_myo,0.7847419297882121,0.27917940319291296,-0.4570387781173004,-0.3120168581377724,"(0.0, 0.0, 0.0, 0.0, 0.0, 0.0, 0.0, 0.0, 0.0)",-12.25,27.9375,-9.625,"(0.0, 0.0, 0.0, 0.0, 0.0, 0.0, 0.0, 0.0, 0.0)",0.56591796875,0.70166015625,0.35986328125,"(0.0, 0.0, 0.0, 0.0, 0.0, 0.0, 0.0, 0.0, 0.0)"
2022/11/28/23:08:22.425841,9219,1669698502,425442218,RU_myo,0.7866391719610047,0.27942536694890435,-0.45331852344462925,-0.31244614534981247,"(0.0, 0.0, 0.0, 0.0, 0.0, 0.0, 0.0, 0.0, 0.0)",-12.4375,24.625,-7.0,"(0.0, 0.0, 0.0, 0.0, 0.0, 0.0, 0.0, 0.0, 0.0)",0.556640625,0.69287109375,0.36083984375,"(0.0, 0.0, 0.0, 0.0, 0.0, 0.0, 0.0, 0.0, 0.0)"
2022/11/28/23:08:22.448822,9220,1669698502,448432207,RU_myo,0.7885332911431672,0.27936503394707607,-0.44984057246885534,-0.3127521157843168,"(0.0, 0.0, 0.0, 0.0, 0.0, 0.0, 0.0, 0.0, 0.0)",-12.0,22.625,-6.0,"(0.0, 0.0, 0.0, 0.0, 0.0, 0.0, 0.0, 0.0, 0.0)",0.55224609375,0.6826171875,0.3837890625,"(0.0, 0.0, 0.0, 0.0, 0.0, 0.0, 0.0, 0.0, 0.0)"
2022/11/28/23:08:22.471559,9221,1669698502,471149206,RU_myo,0.7899738263911056,0.27960056391081317,-0.4470801420315884,-0.3128645471745969,"(0.0, 0.0, 0.0, 0.0, 0.0, 0.0, 0.0, 0.0, 0.0)",-8.1875,19.1875,-5.1875,"(0.0, 0.0, 0.0, 0.0, 0.0, 0.0, 0.0, 0.0, 0.0)",0.54052734375,0.6708984375,0.3798828125,"(0.0, 0.0, 0.0, 0.0, 0.0, 0.0, 0.0, 0.0, 0.0)"
2022/11/28/23:08:22.485760,9222,1669698502,485350370,RU_myo,0.7909422677204079,0.2803301053815752,-0.44512245994945093,-0.31255616583040424,"(0.0, 0.0, 0.0, 0.0, 0.0, 0.0, 0.0, 0.0, 0.0)",-1.75,14.5,-3.1875,"(0.0, 0.0, 0.0, 0.0, 0.0, 0.0, 0.0, 0.0, 0.0)",0.529296875,0.69482421875,0.4111328125,"(0.0, 0.0, 0.0, 0.0, 0.0, 0.0, 0.0, 0.0, 0.0)"
2022/11/28/23:08:22.509063,9223,1669698502,508648157,RU_myo,0.7911843782760712,0.2814890343754718,-0.4443889113807047,-0.3119450248683947,"(0.0, 0.0, 0.0, 0.0, 0.0, 0.0, 0.0, 0.0, 0.0)",3.125,8.875,-1.75,"(0.0, 0.0, 0.0, 0.0, 0.0, 0.0, 0.0, 0.0, 0.0)",0.51708984375,0.685546875,0.3857421875,"(0.0, 0.0, 0.0, 0.0, 0.0, 0.0, 0.0, 0.0, 0.0)"
2022/11/28/23:08:22.531964,9224,1669698502,531361579,RU_myo,0.7912067063754011,0.28180215716541135,-0.44440145252790986,-0.3115876136732564,"(0.0, 0.0, 0.0, 0.0, 0.0, 0.0, 0.0, 0.0, 0.0)",0.125,3.4375,-0.4375,"(0.0, 0.0, 0.0, 0.0, 0.0, 0.0, 0.0, 0.0, 0.0)",0.52392578125,0.6845703125,0.3798828125,"(0.0, 0.0, 0.0, 0.0, 0.0, 0.0, 0.0, 0.0, 0.0)"
2022/11/28/23:08:22.545542,9225,1669698502,545267820,RU_myo,0.7911187542253474,0.282036704465,-0.4446304678700552,-0.3112718443565246,"(0.0, 0.0, 0.0, 0.0, 0.0, 0.0, 0.0, 0.0, 0.0)",2.0,0.0625,0.3125,"(0.0, 0.0, 0.0, 0.0, 0.0, 0.0, 0.0, 0.0, 0.0)",0.52490234375,0.7021484375,0.42919921875,"(0.0, 0.0, 0.0, 0.0, 0.0, 0.0, 0.0, 0.0, 0.0)"
2022/11/28/23:08:22.568656,9226,1669698502,568367719,RU_myo,0.7909788262118369,0.2826014326229497,-0.4450209600980402,-0.31055639075282243,"(0.0, 0.0, 0.0, 0.0, 0.0, 0.0, 0.0, 0.0, 0.0)",6.8125,0.3125,0.0,"(0.0, 0.0, 0.0, 0.0, 0.0, 0.0, 0.0, 0.0, 0.0)",0.5478515625,0.69482421875,0.45654296875,"(0.0, 0.0, 0.0, 0.0, 0.0, 0.0, 0.0, 0.0, 0.0)"
2022/11/28/23:08:22.591348,9227,1669698502,590937376,RU_myo,0.7905935786573336,0.283449129876064,-0.44568164219531,-0.30981649079476764,"(0.0, 0.0, 0.0, 0.0, 0.0, 0.0, 0.0, 0.0, 0.0)",7.3125,-0.1875,0.4375,"(0.0, 0.0, 0.0, 0.0, 0.0, 0.0, 0.0, 0.0, 0.0)",0.54638671875,0.71337890625,0.42822265625,"(0.0, 0.0, 0.0, 0.0, 0.0, 0.0, 0.0, 0.0, 0.0)"
2022/11/28/23:08:22.605467,9228,1669698502,605137109,RU_myo,0.7902792728684624,0.28387309994680404,-0.44622580815116847,-0.3094467032316269,"(0.0, 0.0, 0.0, 0.0, 0.0, 0.0, 0.0, 0.0, 0.0)",3.75,-1.375,-0.0625,"(0.0, 0.0, 0.0, 0.0, 0.0, 0.0, 0.0, 0.0, 0.0)",0.5498046875,0.72802734375,0.43359375,"(0.0, 0.0, 0.0, 0.0, 0.0, 0.0, 0.0, 0.0, 0.0)"
2022/11/28/23:08:22.629040,9229,1669698502,628490209,RU_myo,0.7902370316695297,0.2833305245238246,-0.4467247111137166,-0.3093319901522497,"(0.0, 0.0, 0.0, 0.0, 0.0, 0.0, 0.0, 0.0, 0.0)",0.125,-2.625,0.5625,"(0.0, 0.0, 0.0, 0.0, 0.0, 0.0, 0.0, 0.0, 0.0)",0.56103515625,0.70849609375,0.45751953125,"(0.0, 0.0, 0.0, 0.0, 0.0, 0.0, 0.0, 0.0, 0.0)"
2022/11/28/23:08:22.651204,9230,1669698502,650697469,RU_myo,0.7906445527269599,0.28277414024888103,-0.446530457600003,-0.30908013084833447,"(0.0, 0.0, 0.0, 0.0, 0.0, 0.0, 0.0, 0.0, 0.0)",0.0625,0.0625,1.1875,"(0.0, 0.0, 0.0, 0.0, 0.0, 0.0, 0.0, 0.0, 0.0)",0.5576171875,0.7109375,0.48828125,"(0.0, 0.0, 0.0, 0.0, 0.0, 0.0, 0.0, 0.0, 0.0)"
2022/11/28/23:08:22.665400,9231,1669698502,665064334,RU_myo,0.7908329408211285,0.28295913511204385,-0.446289300245743,-0.3087770199594111,"(0.0, 0.0, 0.0, 0.0, 0.0, 0.0, 0.0, 0.0, 0.0)",2.3125,1.5,0.375,"(0.0, 0.0, 0.0, 0.0, 0.0, 0.0, 0.0, 0.0, 0.0)",0.5458984375,0.73291015625,0.48095703125,"(0.0, 0.0, 0.0, 0.0, 0.0, 0.0, 0.0, 0.0, 0.0)"
2022/11/28/23:08:22.688905,9232,1669698502,688495397,RU_myo,0.7910672196421145,0.28289457318426053,-0.4459175300289552,-0.3087731706017635,"(0.0, 0.0, 0.0, 0.0, 0.0, 0.0, 0.0, 0.0, 0.0)",-0.5,1.5625,-0.0625,"(0.0, 0.0, 0.0, 0.0, 0.0, 0.0, 0.0, 0.0, 0.0)",0.5380859375,0.7333984375,0.46142578125,"(0.0, 0.0, 0.0, 0.0, 0.0, 0.0, 0.0, 0.0, 0.0)"
2022/11/28/23:08:22.711706,9233,1669698502,710902690,RU_myo,0.7913314429138529,0.28253553792890285,-0.445501596747259,-0.3090251519840214,"(0.0, 0.0, 0.0, 0.0, 0.0, 0.0, 0.0, 0.0, 0.0)",-2.75,1.375,-0.8125,"(0.0, 0.0, 0.0, 0.0, 0.0, 0.0, 0.0, 0.0, 0.0)",0.53564453125,0.716796875,0.45703125,"(0.0, 0.0, 0.0, 0.0, 0.0, 0.0, 0.0, 0.0, 0.0)"
2022/11/28/23:08:22.725591,9234,1669698502,725158691,RU_myo,0.7918387770448415,0.2821761093253914,-0.4447798634337285,-0.30909362267440665,"(0.0, 0.0, 0.0, 0.0, 0.0, 0.0, 0.0, 0.0, 0.0)",-1.375,2.4375,-0.5625,"(0.0, 0.0, 0.0, 0.0, 0.0, 0.0, 0.0, 0.0, 0.0)",0.53564453125,0.7138671875,0.486328125,"(0.0, 0.0, 0.0, 0.0, 0.0, 0.0, 0.0, 0.0, 0.0)"
2022/11/28/23:08:22.748810,9235,1669698502,748470783,RU_myo,0.7922283833171642,0.28258993950373423,-0.4440873433756307,-0.3087127244081831,"(0.0, 0.0, 0.0, 0.0, 0.0, 0.0, 0.0, 0.0, 0.0)",2.5,4.375,-0.25,"(0.0, 0.0, 0.0, 0.0, 0.0, 0.0, 0.0, 0.0, 0.0)",0.5263671875,0.7041015625,0.4677734375,"(0.0, 0.0, 0.0, 0.0, 0.0, 0.0, 0.0, 0.0, 0.0)"
2022/11/28/23:08:22.771038,9236,1669698502,770777225,RU_myo,0.7923559292975734,0.2831412075189834,-0.443846273136031,-0.30822657856668817,"(0.0, 0.0, 0.0, 0.0, 0.0, 0.0, 0.0, 0.0, 0.0)",4.3125,2.8125,-0.3125,"(0.0, 0.0, 0.0, 0.0, 0.0, 0.0, 0.0, 0.0, 0.0)",0.52978515625,0.701171875,0.45849609375,"(0.0, 0.0, 0.0, 0.0, 0.0, 0.0, 0.0, 0.0, 0.0)"
2022/11/28/23:08:22.785523,9237,1669698502,785237550,RU_myo,0.7923677660300196,0.28375579604633805,-0.4438529036027039,-0.3076208242791017,"(0.0, 0.0, 0.0, 0.0, 0.0, 0.0, 0.0, 0.0, 0.0)",5.75,1.8125,0.125,"(0.0, 0.0, 0.0, 0.0, 0.0, 0.0, 0.0, 0.0, 0.0)",0.53173828125,0.69384765625,0.453125,"(0.0, 0.0, 0.0, 0.0, 0.0, 0.0, 0.0, 0.0, 0.0)"
2022/11/28/23:08:22.808932,9238,1669698502,808594942,RU_myo,0.7923133581482855,0.28436853367328113,-0.4439786894053331,-0.30701303377905215,"(0.0, 0.0, 0.0, 0.0, 0.0, 0.0, 0.0, 0.0, 0.0)",5.8125,0.5625,0.9375,"(0.0, 0.0, 0.0, 0.0, 0.0, 0.0, 0.0, 0.0, 0.0)",0.5263671875,0.71337890625,0.4609375,"(0.0, 0.0, 0.0, 0.0, 0.0, 0.0, 0.0, 0.0, 0.0)"
2022/11/28/23:08:22.832123,9239,1669698502,831303358,RU_myo,0.7923709835876418,0.2844893817980279,-0.44422092270457997,-0.3064013509174212,"(0.0, 0.0, 0.0, 0.0, 0.0, 0.0, 0.0, 0.0, 0.0)",3.0,0.125,2.5625,"(0.0, 0.0, 0.0, 0.0, 0.0, 0.0, 0.0, 0.0, 0.0)",0.5302734375,0.7177734375,0.45068359375,"(0.0, 0.0, 0.0, 0.0, 0.0, 0.0, 0.0, 0.0, 0.0)"
2022/11/28/23:08:22.845663,9240,1669698502,845372915,RU_myo,0.7926576182826998,0.28405548282803456,-0.44445466823243396,-0.30572280049110984,"(0.0, 0.0, 0.0, 0.0, 0.0, 0.0, 0.0, 0.0, 0.0)",1.3125,-0.125,3.375,"(0.0, 0.0, 0.0, 0.0, 0.0, 0.0, 0.0, 0.0, 0.0)",0.5517578125,0.705078125,0.46630859375,"(0.0, 0.0, 0.0, 0.0, 0.0, 0.0, 0.0, 0.0, 0.0)"
2022/11/28/23:08:22.868751,9241,1669698502,868443250,RU_myo,0.7933961453531276,0.2833862837814118,-0.44427498592394926,-0.30468755732001024,"(0.0, 0.0, 0.0, 0.0, 0.0, 0.0, 0.0, 0.0, 0.0)",1.25,2.0,5.1875,"(0.0, 0.0, 0.0, 0.0, 0.0, 0.0, 0.0, 0.0, 0.0)",0.55615234375,0.69677734375,0.4912109375,"(0.0, 0.0, 0.0, 0.0, 0.0, 0.0, 0.0, 0.0, 0.0)"
2022/11/28/23:08:22.891491,9242,1669698502,891038894,RU_myo,0.7942827916203719,0.2830315303729858,-0.4437436329117116,-0.30347913931733567,"(0.0, 0.0, 0.0, 0.0, 0.0, 0.0, 0.0, 0.0, 0.0)",2.125,4.125,6.625,"(0.0, 0.0, 0.0, 0.0, 0.0, 0.0, 0.0, 0.0, 0.0)",0.5341796875,0.703125,0.49755859375,"(0.0, 0.0, 0.0, 0.0, 0.0, 0.0, 0.0, 0.0, 0.0)"
2022/11/28/23:08:22.905370,9243,1669698502,905078172,RU_myo,0.7951056054508265,0.28295920679128206,-0.44311558268004914,-0.302307366530893,"(0.0, 0.0, 0.0, 0.0, 0.0, 0.0, 0.0, 0.0, 0.0)",3.875,3.6875,6.0625,"(0.0, 0.0, 0.0, 0.0, 0.0, 0.0, 0.0, 0.0, 0.0)",0.54052734375,0.736328125,0.5341796875,"(0.0, 0.0, 0.0, 0.0, 0.0, 0.0, 0.0, 0.0, 0.0)"
2022/11/28/23:08:22.928828,9244,1669698502,928414821,RU_myo,0.7965157413651298,0.282351097283915,-0.4417152812459344,-0.3012111251829054,"(0.0, 0.0, 0.0, 0.0, 0.0, 0.0, 0.0, 0.0, 0.0)",0.8125,6.625,6.0625,"(0.0, 0.0, 0.0, 0.0, 0.0, 0.0, 0.0, 0.0, 0.0)",0.560546875,0.74169921875,0.57470703125,"(0.0, 0.0, 0.0, 0.0, 0.0, 0.0, 0.0, 0.0, 0.0)"
2022/11/28/23:08:22.951327,9245,1669698502,951030254,RU_myo,0.7991845023253147,0.28081929854886,-0.43865427052176853,-0.30004513620217255,"(0.0, 0.0, 0.0, 0.0, 0.0, 0.0, 0.0, 0.0, 0.0)",-5.4375,15.3125,6.9375,"(0.0, 0.0, 0.0, 0.0, 0.0, 0.0, 0.0, 0.0, 0.0)",0.5908203125,0.7353515625,0.6337890625,"(0.0, 0.0, 0.0, 0.0, 0.0, 0.0, 0.0, 0.0, 0.0)"
2022/11/28/23:08:22.973254,9246,1669698502,972518682,RU_myo,0.8035238478795064,0.2791123855946056,-0.43285918185806754,-0.29846043419147633,"(0.0, 0.0, 0.0, 0.0, 0.0, 0.0, 0.0, 0.0, 0.0)",-8.6875,29.125,7.4375,"(0.0, 0.0, 0.0, 0.0, 0.0, 0.0, 0.0, 0.0, 0.0)",0.5859375,0.73046875,0.73046875,"(0.0, 0.0, 0.0, 0.0, 0.0, 0.0, 0.0, 0.0, 0.0)"
2022/11/28/23:08:22.988564,9247,1669698502,988142251,RU_myo,0.8095880691037641,0.27826538050694066,-0.4235932749985014,-0.29614907352921166,"(0.0, 0.0, 0.0, 0.0, 0.0, 0.0, 0.0, 0.0, 0.0)",-9.375,50.75,6.5,"(0.0, 0.0, 0.0, 0.0, 0.0, 0.0, 0.0, 0.0, 0.0)",0.59375,0.75048828125,0.8095703125,"(0.0, 0.0, 0.0, 0.0, 0.0, 0.0, 0.0, 0.0, 0.0)"
2022/11/28/23:08:23.011298,9248,1669698503,10989904,RU_myo,0.8171629753620501,0.27759614669454763,-0.41169437323102986,-0.2927333156435907,"(0.0, 0.0, 0.0, 0.0, 0.0, 0.0, 0.0, 0.0, 0.0)",-14.0625,70.9375,6.9375,"(0.0, 0.0, 0.0, 0.0, 0.0, 0.0, 0.0, 0.0, 0.0)",0.57861328125,0.6748046875,0.7626953125,"(0.0, 0.0, 0.0, 0.0, 0.0, 0.0, 0.0, 0.0, 0.0)"
2022/11/28/23:08:23.032425,9249,1669698503,31631946,RU_myo,0.826431847983925,0.2760673004749847,-0.39728544302270075,-0.2880304202833192,"(0.0, 0.0, 0.0, 0.0, 0.0, 0.0, 0.0, 0.0, 0.0)",-21.0,90.0625,10.9375,"(0.0, 0.0, 0.0, 0.0, 0.0, 0.0, 0.0, 0.0, 0.0)",0.59033203125,0.6064453125,0.7587890625,"(0.0, 0.0, 0.0, 0.0, 0.0, 0.0, 0.0, 0.0, 0.0)"
2022/11/28/23:08:23.048577,9250,1669698503,48264741,RU_myo,0.8356456433921252,0.27777542349554907,-0.38153684295114854,-0.2810103383374001,"(0.0, 0.0, 0.0, 0.0, 0.0, 0.0, 0.0, 0.0, 0.0)",-12.9375,108.625,17.125,"(0.0, 0.0, 0.0, 0.0, 0.0, 0.0, 0.0, 0.0, 0.0)",0.599609375,0.56787109375,0.77197265625,"(0.0, 0.0, 0.0, 0.0, 0.0, 0.0, 0.0, 0.0, 0.0)"
2022/11/28/23:08:23.072389,9251,1669698503,70975303,RU_myo,0.8452426966930264,0.28235793724017477,-0.3642698161369138,-0.2704556895614385,"(0.0, 0.0, 0.0, 0.0, 0.0, 0.0, 0.0, 0.0, 0.0)",5.5,127.6875,25.5,"(0.0, 0.0, 0.0, 0.0, 0.0, 0.0, 0.0, 0.0, 0.0)",0.59716796875,0.5205078125,0.7548828125,"(0.0, 0.0, 0.0, 0.0, 0.0, 0.0, 0.0, 0.0, 0.0)"
2022/11/28/23:08:23.092565,9252,1669698503,91962099,RU_myo,0.8543652634943801,0.28918292744937657,-0.3468608224345308,-0.2571396524576242,"(0.0, 0.0, 0.0, 0.0, 0.0, 0.0, 0.0, 0.0, 0.0)",22.8125,135.375,33.3125,"(0.0, 0.0, 0.0, 0.0, 0.0, 0.0, 0.0, 0.0, 0.0)",0.55517578125,0.49365234375,0.76416015625,"(0.0, 0.0, 0.0, 0.0, 0.0, 0.0, 0.0, 0.0, 0.0)"
2022/11/28/23:08:23.108797,9253,1669698503,108468294,RU_myo,0.8628066597660108,0.2988328668799087,-0.329289893140749,-0.2404823315986193,"(0.0, 0.0, 0.0, 0.0, 0.0, 0.0, 0.0, 0.0, 0.0)",43.1875,145.25,42.875,"(0.0, 0.0, 0.0, 0.0, 0.0, 0.0, 0.0, 0.0, 0.0)",0.54638671875,0.4755859375,0.677734375,"(0.0, 0.0, 0.0, 0.0, 0.0, 0.0, 0.0, 0.0, 0.0)"
2022/11/28/23:08:23.131646,9254,1669698503,131272792,RU_myo,0.8700075158382488,0.3111006249633474,-0.3121382374068194,-0.2210724864856277,"(0.0, 0.0, 0.0, 0.0, 0.0, 0.0, 0.0, 0.0, 0.0)",63.3125,149.8125,50.375,"(0.0, 0.0, 0.0, 0.0, 0.0, 0.0, 0.0, 0.0, 0.0)",0.53662109375,0.490234375,0.61474609375,"(0.0, 0.0, 0.0, 0.0, 0.0, 0.0, 0.0, 0.0, 0.0)"
2022/11/28/23:08:23.152246,9255,1669698503,151718378,RU_myo,0.875582236721558,0.3258789516804739,-0.29554333845979674,-0.19953142780360913,"(0.0, 0.0, 0.0, 0.0, 0.0, 0.0, 0.0, 0.0, 0.0)",81.0,151.9375,56.375,"(0.0, 0.0, 0.0, 0.0, 0.0, 0.0, 0.0, 0.0, 0.0)",0.49365234375,0.58154296875,0.51953125,"(0.0, 0.0, 0.0, 0.0, 0.0, 0.0, 0.0, 0.0, 0.0)"
2022/11/28/23:08:23.168721,9256,1669698503,168378829,RU_myo,0.879347675618165,0.34070373605196064,-0.28070520997903387,-0.1785307108477221,"(0.0, 0.0, 0.0, 0.0, 0.0, 0.0, 0.0, 0.0, 0.0)",85.375,138.75,55.5625,"(0.0, 0.0, 0.0, 0.0, 0.0, 0.0, 0.0, 0.0, 0.0)",0.44580078125,0.6201171875,0.462890625,"(0.0, 0.0, 0.0, 0.0, 0.0, 0.0, 0.0, 0.0, 0.0)"
2022/11/28/23:08:23.191648,9257,1669698503,191258668,RU_myo,0.8812703604642349,0.35499850508796166,-0.268324179567861,-0.15918777532142434,"(0.0, 0.0, 0.0, 0.0, 0.0, 0.0, 0.0, 0.0, 0.0)",85.3125,120.1875,50.3125,"(0.0, 0.0, 0.0, 0.0, 0.0, 0.0, 0.0, 0.0, 0.0)",0.4736328125,0.5966796875,0.4169921875,"(0.0, 0.0, 0.0, 0.0, 0.0, 0.0, 0.0, 0.0, 0.0)"
2022/11/28/23:08:23.213085,9258,1669698503,212255477,RU_myo,0.8817413559837615,0.3689690223537199,-0.2580036488815838,-0.14081249537965787,"(0.0, 0.0, 0.0, 0.0, 0.0, 0.0, 0.0, 0.0, 0.0)",85.25,106.25,48.25,"(0.0, 0.0, 0.0, 0.0, 0.0, 0.0, 0.0, 0.0, 0.0)",0.49169921875,0.61083984375,0.26513671875,"(0.0, 0.0, 0.0, 0.0, 0.0, 0.0, 0.0, 0.0, 0.0)"
2022/11/28/23:08:23.230881,9259,1669698503,229397296,RU_myo,0.8799506070655612,0.3839751175036031,-0.25201609603757386,-0.12139985832374289,"(0.0, 0.0, 0.0, 0.0, 0.0, 0.0, 0.0, 0.0, 0.0)",89.0,92.4375,56.0625,"(0.0, 0.0, 0.0, 0.0, 0.0, 0.0, 0.0, 0.0, 0.0)",0.4619140625,0.7265625,0.2890625,"(0.0, 0.0, 0.0, 0.0, 0.0, 0.0, 0.0, 0.0, 0.0)"
2022/11/28/23:08:23.251214,9260,1669698503,250926256,RU_myo,0.8757424570591454,0.4010055717088504,-0.24804971741625084,-0.10363888291653393,"(0.0, 0.0, 0.0, 0.0, 0.0, 0.0, 0.0, 0.0, 0.0)",98.0,74.5625,53.125,"(0.0, 0.0, 0.0, 0.0, 0.0, 0.0, 0.0, 0.0, 0.0)",0.42822265625,0.8916015625,0.28564453125,"(0.0, 0.0, 0.0, 0.0, 0.0, 0.0, 0.0, 0.0, 0.0)"
2022/11/28/23:08:23.272439,9261,1669698503,271702766,RU_myo,0.8717750111480544,0.414738584383605,-0.24450960545117317,-0.09063823367323819,"(0.0, 0.0, 0.0, 0.0, 0.0, 0.0, 0.0, 0.0, 0.0)",71.3125,59.4375,37.0625,"(0.0, 0.0, 0.0, 0.0, 0.0, 0.0, 0.0, 0.0, 0.0)",0.390625,0.919921875,0.2109375,"(0.0, 0.0, 0.0, 0.0, 0.0, 0.0, 0.0, 0.0, 0.0)"
2022/11/28/23:08:23.289284,9262,1669698503,288471698,RU_myo,0.869891646491296,0.42145676529767045,-0.24280304306359637,-0.08191093106871451,"(0.0, 0.0, 0.0, 0.0, 0.0, 0.0, 0.0, 0.0, 0.0)",25.5,40.3125,30.1875,"(0.0, 0.0, 0.0, 0.0, 0.0, 0.0, 0.0, 0.0, 0.0)",0.384765625,0.87255859375,0.15673828125,"(0.0, 0.0, 0.0, 0.0, 0.0, 0.0, 0.0, 0.0, 0.0)"
2022/11/28/23:08:23.311739,9263,1669698503,310941934,RU_myo,0.8700925291237667,0.4221978270044962,-0.2431742291146325,-0.0745270416036562,"(0.0, 0.0, 0.0, 0.0, 0.0, 0.0, 0.0, 0.0, 0.0)",3.4375,25.3125,30.375,"(0.0, 0.0, 0.0, 0.0, 0.0, 0.0, 0.0, 0.0, 0.0)",0.47509765625,0.77099609375,0.34423828125,"(0.0, 0.0, 0.0, 0.0, 0.0, 0.0, 0.0, 0.0, 0.0)"
2022/11/28/23:08:23.332501,9264,1669698503,331938266,RU_myo,0.8682370150135336,0.4258481303163039,-0.24554780396481163,-0.06726166541616267,"(0.0, 0.0, 0.0, 0.0, 0.0, 0.0, 0.0, 0.0, 0.0)",31.9375,11.375,27.5625,"(0.0, 0.0, 0.0, 0.0, 0.0, 0.0, 0.0, 0.0, 0.0)",0.51416015625,0.74365234375,0.46435546875,"(0.0, 0.0, 0.0, 0.0, 0.0, 0.0, 0.0, 0.0, 0.0)"
2022/11/28/23:08:23.347847,9265,1669698503,347559452,RU_myo,0.8660920742791732,0.42981116187977014,-0.2478036519783963,-0.06115745302521012,"(0.0, 0.0, 0.0, 0.0, 0.0, 0.0, 0.0, 0.0, 0.0)",36.4375,6.5625,21.5,"(0.0, 0.0, 0.0, 0.0, 0.0, 0.0, 0.0, 0.0, 0.0)",0.50146484375,0.734375,0.51513671875,"(0.0, 0.0, 0.0, 0.0, 0.0, 0.0, 0.0, 0.0, 0.0)"
2022/11/28/23:08:23.371432,9266,1669698503,371112585,RU_myo,0.8647369455675971,0.43197172046176924,-0.2499539628784718,-0.05615571327184226,"(0.0, 0.0, 0.0, 0.0, 0.0, 0.0, 0.0, 0.0, 0.0)",22.4375,3.125,21.6875,"(0.0, 0.0, 0.0, 0.0, 0.0, 0.0, 0.0, 0.0, 0.0)",0.47314453125,0.77587890625,0.51611328125,"(0.0, 0.0, 0.0, 0.0, 0.0, 0.0, 0.0, 0.0, 0.0)"
2022/11/28/23:08:23.392422,9267,1669698503,391849994,RU_myo,0.863955291972351,0.4326795524402682,-0.25232011141036376,-0.052002112946693255,"(0.0, 0.0, 0.0, 0.0, 0.0, 0.0, 0.0, 0.0, 0.0)",8.4375,0.9375,23.0625,"(0.0, 0.0, 0.0, 0.0, 0.0, 0.0, 0.0, 0.0, 0.0)",0.45458984375,0.82421875,0.46240234375,"(0.0, 0.0, 0.0, 0.0, 0.0, 0.0, 0.0, 0.0, 0.0)"
2022/11/28/23:08:23.407926,9268,1669698503,407660007,RU_myo,0.8647963057239487,0.4305669918532421,-0.2534326836085429,-0.05011277293897247,"(0.0, 0.0, 0.0, 0.0, 0.0, 0.0, 0.0, 0.0, 0.0)",-11.6875,0.25,16.0625,"(0.0, 0.0, 0.0, 0.0, 0.0, 0.0, 0.0, 0.0, 0.0)",0.42578125,0.8583984375,0.5166015625,"(0.0, 0.0, 0.0, 0.0, 0.0, 0.0, 0.0, 0.0, 0.0)"
2022/11/28/23:08:23.431441,9269,1669698503,431086301,RU_myo,0.866843253035398,0.42615825888558995,-0.25403475701544337,-0.049378692557783196,"(0.0, 0.0, 0.0, 0.0, 0.0, 0.0, 0.0, 0.0, 0.0)",-21.9375,0.3125,9.6875,"(0.0, 0.0, 0.0, 0.0, 0.0, 0.0, 0.0, 0.0, 0.0)",0.44384765625,0.76318359375,0.57958984375,"(0.0, 0.0, 0.0, 0.0, 0.0, 0.0, 0.0, 0.0, 0.0)"
2022/11/28/23:08:23.454237,9270,1669698503,453768014,RU_myo,0.8687185390883109,0.42212164802464397,-0.2545791489171183,-0.048279095371239644,"(0.0, 0.0, 0.0, 0.0, 0.0, 0.0, 0.0, 0.0, 0.0)",-18.875,1.25,10.375,"(0.0, 0.0, 0.0, 0.0, 0.0, 0.0, 0.0, 0.0, 0.0)",0.41650390625,0.68701171875,0.53955078125,"(0.0, 0.0, 0.0, 0.0, 0.0, 0.0, 0.0, 0.0, 0.0)"
2022/11/28/23:08:23.468244,9271,1669698503,467890024,RU_myo,0.8699585767071301,0.4196285143381407,-0.25482895234352543,-0.04632698798293073,"(0.0, 0.0, 0.0, 0.0, 0.0, 0.0, 0.0, 0.0, 0.0)",-10.75,4.75,12.625,"(0.0, 0.0, 0.0, 0.0, 0.0, 0.0, 0.0, 0.0, 0.0)",0.4140625,0.72021484375,0.52978515625,"(0.0, 0.0, 0.0, 0.0, 0.0, 0.0, 0.0, 0.0, 0.0)"
2022/11/28/23:08:23.492392,9272,1669698503,491806507,RU_myo,0.8697135657168699,0.4202995026687042,-0.2547676625238413,-0.04516724251740359,"(0.0, 0.0, 0.0, 0.0, 0.0, 0.0, 0.0, 0.0, 0.0)",4.0,3.25,5.125,"(0.0, 0.0, 0.0, 0.0, 0.0, 0.0, 0.0, 0.0, 0.0)",0.44921875,0.85546875,0.5556640625,"(0.0, 0.0, 0.0, 0.0, 0.0, 0.0, 0.0, 0.0, 0.0)"
2022/11/28/23:08:23.514209,9273,1669698503,513893127,RU_myo,0.8700306632414629,0.4203052579683397,-0.2538555863912757,-0.044130220957175365,"(0.0, 0.0, 0.0, 0.0, 0.0, 0.0, 0.0, 0.0, 0.0)",6.4375,6.6875,-0.4375,"(0.0, 0.0, 0.0, 0.0, 0.0, 0.0, 0.0, 0.0, 0.0)",0.4853515625,0.77685546875,0.64794921875,"(0.0, 0.0, 0.0, 0.0, 0.0, 0.0, 0.0, 0.0, 0.0)"
2022/11/28/23:08:23.528411,9274,1669698503,527989149,RU_myo,0.8706344892528849,0.41975276097813297,-0.2529381185827226,-0.04272603354437881,"(0.0, 0.0, 0.0, 0.0, 0.0, 0.0, 0.0, 0.0, 0.0)",3.875,8.25,1.6875,"(0.0, 0.0, 0.0, 0.0, 0.0, 0.0, 0.0, 0.0, 0.0)",0.45361328125,0.7109375,0.60400390625,"(0.0, 0.0, 0.0, 0.0, 0.0, 0.0, 0.0, 0.0, 0.0)"
2022/11/28/23:08:23.551639,9275,1669698503,551208734,RU_myo,0.870762855512861,0.42012201980197833,-0.2520243817757328,-0.04187181542701687,"(0.0, 0.0, 0.0, 0.0, 0.0, 0.0, 0.0, 0.0, 0.0)",3.625,6.5,1.25,"(0.0, 0.0, 0.0, 0.0, 0.0, 0.0, 0.0, 0.0, 0.0)",0.392578125,0.7236328125,0.521484375,"(0.0, 0.0, 0.0, 0.0, 0.0, 0.0, 0.0, 0.0, 0.0)"
2022/11/28/23:08:23.573509,9276,1669698503,573193311,RU_myo,0.8705573703317074,0.4208436562039629,-0.25159065277342063,-0.0415045230193901,"(0.0, 0.0, 0.0, 0.0, 0.0, 0.0, 0.0, 0.0, 0.0)",5.25,3.0625,-1.3125,"(0.0, 0.0, 0.0, 0.0, 0.0, 0.0, 0.0, 0.0, 0.0)",0.41552734375,0.74267578125,0.52783203125,"(0.0, 0.0, 0.0, 0.0, 0.0, 0.0, 0.0, 0.0, 0.0)"
2022/11/28/23:08:23.588328,9277,1669698503,587879657,RU_myo,0.8703916635033179,0.42127933110097476,-0.25153464553276106,-0.040894979982273705,"(0.0, 0.0, 0.0, 0.0, 0.0, 0.0, 0.0, 0.0, 0.0)",5.375,2.5625,-1.125,"(0.0, 0.0, 0.0, 0.0, 0.0, 0.0, 0.0, 0.0, 0.0)",0.4541015625,0.73681640625,0.54736328125,"(0.0, 0.0, 0.0, 0.0, 0.0, 0.0, 0.0, 0.0, 0.0)"
2022/11/28/23:08:23.611483,9278,1669698503,610743522,RU_myo,0.8705186482296311,0.4212817073398481,-0.2511698385545458,-0.04040690962894516,"(0.0, 0.0, 0.0, 0.0, 0.0, 0.0, 0.0, 0.0, 0.0)",2.125,3.8125,-0.5625,"(0.0, 0.0, 0.0, 0.0, 0.0, 0.0, 0.0, 0.0, 0.0)",0.4365234375,0.73583984375,0.53955078125,"(0.0, 0.0, 0.0, 0.0, 0.0, 0.0, 0.0, 0.0, 0.0)"
2022/11/28/23:08:23.633873,9279,1669698503,633449077,RU_myo,0.870834273579997,0.42073741135395804,-0.2509286954992197,-0.04077362408014565,"(0.0, 0.0, 0.0, 0.0, 0.0, 0.0, 0.0, 0.0, 0.0)",-5.3125,1.4375,-1.625,"(0.0, 0.0, 0.0, 0.0, 0.0, 0.0, 0.0, 0.0, 0.0)",0.40283203125,0.751953125,0.49365234375,"(0.0, 0.0, 0.0, 0.0, 0.0, 0.0, 0.0, 0.0, 0.0)"
2022/11/28/23:08:23.655420,9280,1669698503,654607534,RU_myo,0.8714266319156474,0.41926381835319615,-0.2512286906888565,-0.04144418877010048,"(0.0, 0.0, 0.0, 0.0, 0.0, 0.0, 0.0, 0.0, 0.0)",-8.125,-1.875,-2.625,"(0.0, 0.0, 0.0, 0.0, 0.0, 0.0, 0.0, 0.0, 0.0)",0.42919921875,0.7255859375,0.53173828125,"(0.0, 0.0, 0.0, 0.0, 0.0, 0.0, 0.0, 0.0, 0.0)"
2022/11/28/23:08:23.678880,9281,1669698503,678458690,RU_myo,0.8719088803392371,0.41785706648949367,-0.25189835135877015,-0.04144390127758782,"(0.0, 0.0, 0.0, 0.0, 0.0, 0.0, 0.0, 0.0, 0.0)",-3.8125,-2.3125,-0.8125,"(0.0, 0.0, 0.0, 0.0, 0.0, 0.0, 0.0, 0.0, 0.0)",0.46728515625,0.7041015625,0.5771484375,"(0.0, 0.0, 0.0, 0.0, 0.0, 0.0, 0.0, 0.0, 0.0)"
2022/11/28/23:08:23.694287,9282,1669698503,693803787,RU_myo,0.8722846934741012,0.416824027131386,-0.25232838309579,-0.04132228237925733,"(0.0, 0.0, 0.0, 0.0, 0.0, 0.0, 0.0, 0.0, 0.0)",-0.875,-1.9375,-0.375,"(0.0, 0.0, 0.0, 0.0, 0.0, 0.0, 0.0, 0.0, 0.0)",0.4521484375,0.70751953125,0.5908203125,"(0.0, 0.0, 0.0, 0.0, 0.0, 0.0, 0.0, 0.0, 0.0)"
2022/11/28/23:08:23.708322,9283,1669698503,707973957,RU_myo,0.8728534450564671,0.41530733148001414,-0.25276126685166644,-0.04193358858418132,"(0.0, 0.0, 0.0, 0.0, 0.0, 0.0, 0.0, 0.0, 0.0)",-6.25,-4.0625,-1.1875,"(0.0, 0.0, 0.0, 0.0, 0.0, 0.0, 0.0, 0.0, 0.0)",0.42138671875,0.736328125,0.58447265625,"(0.0, 0.0, 0.0, 0.0, 0.0, 0.0, 0.0, 0.0, 0.0)"
2022/11/28/23:08:23.731026,9284,1669698503,730672597,RU_myo,0.8737297043833481,0.4128472036639166,-0.25342128764230953,-0.0439458880304583,"(0.0, 0.0, 0.0, 0.0, 0.0, 0.0, 0.0, 0.0, 0.0)",-15.9375,-8.375,-4.375,"(0.0, 0.0, 0.0, 0.0, 0.0, 0.0, 0.0, 0.0, 0.0)",0.4208984375,0.77978515625,0.578125,"(0.0, 0.0, 0.0, 0.0, 0.0, 0.0, 0.0, 0.0, 0.0)"
2022/11/28/23:08:23.736646,9285,1669698503,736305475,RU_myo,0.8754889580012448,0.4083255109473179,-0.2542726574897648,-0.046203648996579916,"(0.0, 0.0, 0.0, 0.0, 0.0, 0.0, 0.0, 0.0, 0.0)",-27.3125,-7.125,-5.625,"(0.0, 0.0, 0.0, 0.0, 0.0, 0.0, 0.0, 0.0, 0.0)",0.470703125,0.732421875,0.58642578125,"(0.0, 0.0, 0.0, 0.0, 0.0, 0.0, 0.0, 0.0, 0.0)"
2022/11/28/23:08:23.766523,9286,1669698503,766212463,RU_myo,0.877638088242523,0.4033875878152051,-0.25452053883937137,-0.04742505004273179,"(0.0, 0.0, 0.0, 0.0, 0.0, 0.0, 0.0, 0.0, 0.0)",-27.5625,-1.0,-2.6875,"(0.0, 0.0, 0.0, 0.0, 0.0, 0.0, 0.0, 0.0, 0.0)",0.46728515625,0.67333984375,0.57861328125,"(0.0, 0.0, 0.0, 0.0, 0.0, 0.0, 0.0, 0.0, 0.0)"
2022/11/28/23:08:23.781539,9287,1669698503,781069993,RU_myo,0.8788306015290894,0.400594890806738,-0.25471316156277884,-0.047976167023327146,"(0.0, 0.0, 0.0, 0.0, 0.0, 0.0, 0.0, 0.0, 0.0)",-15.3125,-0.625,-0.625,"(0.0, 0.0, 0.0, 0.0, 0.0, 0.0, 0.0, 0.0, 0.0)",0.42138671875,0.658203125,0.53759765625,"(0.0, 0.0, 0.0, 0.0, 0.0, 0.0, 0.0, 0.0, 0.0)"
2022/11/28/23:08:23.796522,9288,1669698503,796173334,RU_myo,0.8792319660189135,0.3995454668212293,-0.25501084026567306,-0.0477916438315036,"(0.0, 0.0, 0.0, 0.0, 0.0, 0.0, 0.0, 0.0, 0.0)",-2.5625,-1.0,0.625,"(0.0, 0.0, 0.0, 0.0, 0.0, 0.0, 0.0, 0.0, 0.0)",0.43896484375,0.6904296875,0.5908203125,"(0.0, 0.0, 0.0, 0.0, 0.0, 0.0, 0.0, 0.0, 0.0)"
2022/11/28/23:08:23.819531,9289,1669698503,818888902,RU_myo,0.8791203946271147,0.4000385382480115,-0.2547697373584376,-0.04699872969956803,"(0.0, 0.0, 0.0, 0.0, 0.0, 0.0, 0.0, 0.0, 0.0)",7.4375,2.75,0.4375,"(0.0, 0.0, 0.0, 0.0, 0.0, 0.0, 0.0, 0.0, 0.0)",0.45361328125,0.72802734375,0.619140625,"(0.0, 0.0, 0.0, 0.0, 0.0, 0.0, 0.0, 0.0, 0.0)"
2022/11/28/23:08:23.841583,9290,1669698503,841138362,RU_myo,0.8789691564865696,0.4007576891528932,-0.25427300228616406,-0.04638681750779757,"(0.0, 0.0, 0.0, 0.0, 0.0, 0.0, 0.0, 0.0, 0.0)",7.3125,3.6875,-0.5625,"(0.0, 0.0, 0.0, 0.0, 0.0, 0.0, 0.0, 0.0, 0.0)",0.4365234375,0.72216796875,0.595703125,"(0.0, 0.0, 0.0, 0.0, 0.0, 0.0, 0.0, 0.0, 0.0)"
2022/11/28/23:08:23.863976,9291,1669698503,863603115,RU_myo,0.8791167755424689,0.40046415082511555,-0.25428039206484243,-0.04608298031900049,"(0.0, 0.0, 0.0, 0.0, 0.0, 0.0, 0.0, 0.0, 0.0)",-1.125,1.375,0.875,"(0.0, 0.0, 0.0, 0.0, 0.0, 0.0, 0.0, 0.0, 0.0)",0.4296875,0.72509765625,0.5546875,"(0.0, 0.0, 0.0, 0.0, 0.0, 0.0, 0.0, 0.0, 0.0)"
2022/11/28/23:08:23.887237,9292,1669698503,886781454,RU_myo,0.8794139831448845,0.39991118944789583,-0.2540339393287763,-0.046570854326731456,"(0.0, 0.0, 0.0, 0.0, 0.0, 0.0, 0.0, 0.0, 0.0)",-6.5,1.6875,-2.125,"(0.0, 0.0, 0.0, 0.0, 0.0, 0.0, 0.0, 0.0, 0.0)",0.4384765625,0.78271484375,0.5458984375,"(0.0, 0.0, 0.0, 0.0, 0.0, 0.0, 0.0, 0.0, 0.0)"
2022/11/28/23:08:23.901523,9293,1669698503,901116609,RU_myo,0.8798367350141338,0.39929878046912687,-0.25317813228155583,-0.04846273795360543,"(0.0, 0.0, 0.0, 0.0, 0.0, 0.0, 0.0, 0.0, 0.0)",-9.4375,2.3125,-11.375,"(0.0, 0.0, 0.0, 0.0, 0.0, 0.0, 0.0, 0.0, 0.0)",0.4677734375,0.802734375,0.56884765625,"(0.0, 0.0, 0.0, 0.0, 0.0, 0.0, 0.0, 0.0, 0.0)"
