time,.header.seq,.header.stamp.secs,.header.stamp.nsecs,.header.frame_id,.orientation.x,.orientation.y,.orientation.z,.orientation.w,.orientation_covariance,.angular_velocity.x,.angular_velocity.y,.angular_velocity.z,.angular_velocity_covariance,.linear_acceleration.x,.linear_acceleration.y,.linear_acceleration.z,.linear_acceleration_covariance
2022/11/28/22:55:17.348368,1,1669697717,347740411,RL_myo,0.7203979331166016,0.24127196726340133,-0.6470336769439204,0.06451415871424619,"(0.0, 0.0, 0.0, 0.0, 0.0, 0.0, 0.0, 0.0, 0.0)",-160.5625,-62.3125,-52.8125,"(0.0, 0.0, 0.0, 0.0, 0.0, 0.0, 0.0, 0.0, 0.0)",0.91552734375,0.611328125,-0.28125,"(0.0, 0.0, 0.0, 0.0, 0.0, 0.0, 0.0, 0.0, 0.0)"
2022/11/28/22:55:17.364407,2,1669697717,363974094,RL_myo,0.7193586230808704,0.22845404091224314,-0.6552108279970426,0.03210441504671117,"(0.0, 0.0, 0.0, 0.0, 0.0, 0.0, 0.0, 0.0, 0.0)",-177.0,-70.75,-68.75,"(0.0, 0.0, 0.0, 0.0, 0.0, 0.0, 0.0, 0.0, 0.0)",0.94921875,0.65966796875,-0.3662109375,"(0.0, 0.0, 0.0, 0.0, 0.0, 0.0, 0.0, 0.0, 0.0)"
2022/11/28/22:55:17.388182,3,1669697717,386993169,RL_myo,0.717722678880637,0.21741033949934763,-0.6615084950853256,-0.0036621618107694717,"(0.0, 0.0, 0.0, 0.0, 0.0, 0.0, 0.0, 0.0, 0.0)",-181.0,-71.1875,-91.625,"(0.0, 0.0, 0.0, 0.0, 0.0, 0.0, 0.0, 0.0, 0.0)",0.96826171875,0.7001953125,-0.32373046875,"(0.0, 0.0, 0.0, 0.0, 0.0, 0.0, 0.0, 0.0, 0.0)"
2022/11/28/22:55:17.408535,4,1669697717,407857418,RL_myo,0.7170396199344218,0.20812947769632092,-0.6638170672801132,-0.04339591162524462,"(0.0, 0.0, 0.0, 0.0, 0.0, 0.0, 0.0, 0.0, 0.0)",-189.9375,-57.0625,-121.1875,"(0.0, 0.0, 0.0, 0.0, 0.0, 0.0, 0.0, 0.0, 0.0)",1.109375,0.69580078125,-0.24462890625,"(0.0, 0.0, 0.0, 0.0, 0.0, 0.0, 0.0, 0.0, 0.0)"
2022/11/28/22:55:17.424339,5,1669697717,424027681,RL_myo,0.7172324641473403,0.20294425523699317,-0.6613846465407693,-0.08343602914555479,"(0.0, 0.0, 0.0, 0.0, 0.0, 0.0, 0.0, 0.0, 0.0)",-176.25,-35.125,-145.875,"(0.0, 0.0, 0.0, 0.0, 0.0, 0.0, 0.0, 0.0, 0.0)",1.2255859375,0.669921875,-0.140625,"(0.0, 0.0, 0.0, 0.0, 0.0, 0.0, 0.0, 0.0, 0.0)"
2022/11/28/22:55:17.447954,6,1669697717,447170734,RL_myo,0.7181417110862375,0.2032476540810106,-0.6541156482841414,-0.12286412242194425,"(0.0, 0.0, 0.0, 0.0, 0.0, 0.0, 0.0, 0.0, 0.0)",-153.1875,-11.125,-171.0625,"(0.0, 0.0, 0.0, 0.0, 0.0, 0.0, 0.0, 0.0, 0.0)",1.2451171875,0.65185546875,0.0146484375,"(0.0, 0.0, 0.0, 0.0, 0.0, 0.0, 0.0, 0.0, 0.0)"
2022/11/28/22:55:17.468583,7,1669697717,467609167,RL_myo,0.7197178286813132,0.20879873574616456,-0.6421430864616771,-0.16143602924542685,"(0.0, 0.0, 0.0, 0.0, 0.0, 0.0, 0.0, 0.0, 0.0)",-131.6875,13.625,-194.0625,"(0.0, 0.0, 0.0, 0.0, 0.0, 0.0, 0.0, 0.0, 0.0)",1.283203125,0.658203125,0.1650390625,"(0.0, 0.0, 0.0, 0.0, 0.0, 0.0, 0.0, 0.0, 0.0)"
2022/11/28/22:55:17.485046,8,1669697717,484635591,RL_myo,0.7222761364099396,0.2181964836627965,-0.625781411746756,-0.19775009987901,"(0.0, 0.0, 0.0, 0.0, 0.0, 0.0, 0.0, 0.0, 0.0)",-111.6875,40.5625,-205.875,"(0.0, 0.0, 0.0, 0.0, 0.0, 0.0, 0.0, 0.0, 0.0)",1.283203125,0.59033203125,0.28466796875,"(0.0, 0.0, 0.0, 0.0, 0.0, 0.0, 0.0, 0.0, 0.0)"
2022/11/28/22:55:17.507511,9,1669697717,506999731,RL_myo,0.7251090839436362,0.23175414071834902,-0.6061496896165194,-0.2304113461184534,"(0.0, 0.0, 0.0, 0.0, 0.0, 0.0, 0.0, 0.0, 0.0)",-84.4375,63.875,-211.375,"(0.0, 0.0, 0.0, 0.0, 0.0, 0.0, 0.0, 0.0, 0.0)",1.21240234375,0.5087890625,0.3828125,"(0.0, 0.0, 0.0, 0.0, 0.0, 0.0, 0.0, 0.0, 0.0)"
2022/11/28/22:55:17.527891,10,1669697717,527456283,RL_myo,0.7273035636115731,0.24988089874335181,-0.5842354574429319,-0.2593414603713976,"(0.0, 0.0, 0.0, 0.0, 0.0, 0.0, 0.0, 0.0, 0.0)",-53.1875,81.75,-215.9375,"(0.0, 0.0, 0.0, 0.0, 0.0, 0.0, 0.0, 0.0, 0.0)",1.06103515625,0.46044921875,0.4814453125,"(0.0, 0.0, 0.0, 0.0, 0.0, 0.0, 0.0, 0.0, 0.0)"
2022/11/28/22:55:17.544953,11,1669697717,544445514,RL_myo,0.7276269468586212,0.2734475901289005,-0.5614220834833988,-0.283884986984267,"(0.0, 0.0, 0.0, 0.0, 0.0, 0.0, 0.0, 0.0, 0.0)",-13.375,92.9375,-220.625,"(0.0, 0.0, 0.0, 0.0, 0.0, 0.0, 0.0, 0.0, 0.0)",0.9443359375,0.43701171875,0.55712890625,"(0.0, 0.0, 0.0, 0.0, 0.0, 0.0, 0.0, 0.0, 0.0)"
2022/11/28/22:55:17.567223,12,1669697717,566871881,RL_myo,0.7271739974425855,0.30035447720454617,-0.5369881508729114,-0.3043828038648795,"(0.0, 0.0, 0.0, 0.0, 0.0, 0.0, 0.0, 0.0, 0.0)",12.625,109.625,-217.875,"(0.0, 0.0, 0.0, 0.0, 0.0, 0.0, 0.0, 0.0, 0.0)",0.87548828125,0.46240234375,0.57080078125,"(0.0, 0.0, 0.0, 0.0, 0.0, 0.0, 0.0, 0.0, 0.0)"
2022/11/28/22:55:17.588570,13,1669697717,587964534,RL_myo,0.727352422368044,0.32617028993327407,-0.5103734963364591,-0.32263026807396833,"(0.0, 0.0, 0.0, 0.0, 0.0, 0.0, 0.0, 0.0, 0.0)",10.5,123.0625,-207.1875,"(0.0, 0.0, 0.0, 0.0, 0.0, 0.0, 0.0, 0.0, 0.0)",0.76025390625,0.51025390625,0.60498046875,"(0.0, 0.0, 0.0, 0.0, 0.0, 0.0, 0.0, 0.0, 0.0)"
2022/11/28/22:55:17.604973,14,1669697717,604338645,RL_myo,0.7281025729995358,0.3490058271784178,-0.48224817078291,-0.33985037525873213,"(0.0, 0.0, 0.0, 0.0, 0.0, 0.0, 0.0, 0.0, 0.0)",-2.25,127.375,-195.375,"(0.0, 0.0, 0.0, 0.0, 0.0, 0.0, 0.0, 0.0, 0.0)",0.62158203125,0.494140625,0.6240234375,"(0.0, 0.0, 0.0, 0.0, 0.0, 0.0, 0.0, 0.0, 0.0)"
2022/11/28/22:55:17.627474,15,1669697717,626773834,RL_myo,0.7291282568280725,0.3703014510443593,-0.4531264171012565,-0.354859508220192,"(0.0, 0.0, 0.0, 0.0, 0.0, 0.0, 0.0, 0.0, 0.0)",-4.875,133.875,-182.3125,"(0.0, 0.0, 0.0, 0.0, 0.0, 0.0, 0.0, 0.0, 0.0)",0.4765625,0.400390625,0.591796875,"(0.0, 0.0, 0.0, 0.0, 0.0, 0.0, 0.0, 0.0, 0.0)"
2022/11/28/22:55:17.648266,16,1669697717,647587537,RL_myo,0.7295760668175134,0.39204108400977905,-0.4253062857512285,-0.36487958900988,"(0.0, 0.0, 0.0, 0.0, 0.0, 0.0, 0.0, 0.0, 0.0)",12.375,139.375,-158.9375,"(0.0, 0.0, 0.0, 0.0, 0.0, 0.0, 0.0, 0.0, 0.0)",0.30810546875,0.40673828125,0.498046875,"(0.0, 0.0, 0.0, 0.0, 0.0, 0.0, 0.0, 0.0, 0.0)"
2022/11/28/22:55:17.664902,17,1669697717,664448261,RL_myo,0.7289070012504081,0.4139547213599286,-0.3999161507446553,-0.37067930150676004,"(0.0, 0.0, 0.0, 0.0, 0.0, 0.0, 0.0, 0.0, 0.0)",29.625,136.4375,-136.9375,"(0.0, 0.0, 0.0, 0.0, 0.0, 0.0, 0.0, 0.0, 0.0)",0.1884765625,0.466796875,0.4130859375,"(0.0, 0.0, 0.0, 0.0, 0.0, 0.0, 0.0, 0.0, 0.0)"
2022/11/28/22:55:17.687257,18,1669697717,686900138,RL_myo,0.7278618333955293,0.43415356150460377,-0.3770843108358558,-0.3735441861954415,"(0.0, 0.0, 0.0, 0.0, 0.0, 0.0, 0.0, 0.0, 0.0)",35.3125,128.1875,-115.625,"(0.0, 0.0, 0.0, 0.0, 0.0, 0.0, 0.0, 0.0, 0.0)",0.16259765625,0.46142578125,0.40576171875,"(0.0, 0.0, 0.0, 0.0, 0.0, 0.0, 0.0, 0.0, 0.0)"
2022/11/28/22:55:17.708265,19,1669697717,707545518,RL_myo,0.7263827364323404,0.45251673035117823,-0.3575455902882657,-0.37384205198286574,"(0.0, 0.0, 0.0, 0.0, 0.0, 0.0, 0.0, 0.0, 0.0)",41.3125,116.375,-93.625,"(0.0, 0.0, 0.0, 0.0, 0.0, 0.0, 0.0, 0.0, 0.0)",0.138671875,0.4482421875,0.3740234375,"(0.0, 0.0, 0.0, 0.0, 0.0, 0.0, 0.0, 0.0, 0.0)"
2022/11/28/22:55:17.724787,20,1669697717,724331855,RL_myo,0.7256730198302515,0.4682785270533845,-0.34083254628077414,-0.37141225718454707,"(0.0, 0.0, 0.0, 0.0, 0.0, 0.0, 0.0, 0.0, 0.0)",39.9375,107.8125,-66.9375,"(0.0, 0.0, 0.0, 0.0, 0.0, 0.0, 0.0, 0.0, 0.0)",0.07958984375,0.478515625,0.38037109375,"(0.0, 0.0, 0.0, 0.0, 0.0, 0.0, 0.0, 0.0, 0.0)"
2022/11/28/22:55:17.747030,21,1669697717,746738672,RL_myo,0.725643526042631,0.4813819909074128,-0.327757232302879,-0.3664533375691779,"(0.0, 0.0, 0.0, 0.0, 0.0, 0.0, 0.0, 0.0, 0.0)",47.4375,92.9375,-37.625,"(0.0, 0.0, 0.0, 0.0, 0.0, 0.0, 0.0, 0.0, 0.0)",0.0224609375,0.5224609375,0.3466796875,"(0.0, 0.0, 0.0, 0.0, 0.0, 0.0, 0.0, 0.0, 0.0)"
2022/11/28/22:55:17.767964,22,1669697717,767542839,RL_myo,0.7255791435590421,0.4928542718909207,-0.31890570534118395,-0.35906646210950915,"(0.0, 0.0, 0.0, 0.0, 0.0, 0.0, 0.0, 0.0, 0.0)",49.6875,79.875,-13.9375,"(0.0, 0.0, 0.0, 0.0, 0.0, 0.0, 0.0, 0.0, 0.0)",0.048828125,0.62890625,0.30712890625,"(0.0, 0.0, 0.0, 0.0, 0.0, 0.0, 0.0, 0.0, 0.0)"
2022/11/28/22:55:17.784113,23,1669697717,783737897,RL_myo,0.728161234365152,0.5001301889679846,-0.31171160300945777,-0.3499812672128903,"(0.0, 0.0, 0.0, 0.0, 0.0, 0.0, 0.0, 0.0, 0.0)",29.0625,74.6875,9.6875,"(0.0, 0.0, 0.0, 0.0, 0.0, 0.0, 0.0, 0.0, 0.0)",0.07421875,0.7197265625,0.29296875,"(0.0, 0.0, 0.0, 0.0, 0.0, 0.0, 0.0, 0.0, 0.0)"
2022/11/28/22:55:17.806932,24,1669697717,806514263,RL_myo,0.7337196334366468,0.5026965228337262,-0.3048162257202075,-0.3406446447225627,"(0.0, 0.0, 0.0, 0.0, 0.0, 0.0, 0.0, 0.0, 0.0)",-1.1875,68.5,31.0,"(0.0, 0.0, 0.0, 0.0, 0.0, 0.0, 0.0, 0.0, 0.0)",-0.00439453125,0.68994140625,0.24853515625,"(0.0, 0.0, 0.0, 0.0, 0.0, 0.0, 0.0, 0.0, 0.0)"
2022/11/28/22:55:17.828116,25,1669697717,827549695,RL_myo,0.7402116108403352,0.5020401170249655,-0.29957603578827124,-0.332109456137731,"(0.0, 0.0, 0.0, 0.0, 0.0, 0.0, 0.0, 0.0, 0.0)",-14.25,52.875,45.6875,"(0.0, 0.0, 0.0, 0.0, 0.0, 0.0, 0.0, 0.0, 0.0)",-0.08349609375,0.70703125,0.27001953125,"(0.0, 0.0, 0.0, 0.0, 0.0, 0.0, 0.0, 0.0, 0.0)"
2022/11/28/22:55:17.843932,26,1669697717,843587160,RL_myo,0.7437180473239828,0.5020783469254889,-0.29834171648088864,-0.3252583893466971,"(0.0, 0.0, 0.0, 0.0, 0.0, 0.0, 0.0, 0.0, 0.0)",4.625,27.75,39.6875,"(0.0, 0.0, 0.0, 0.0, 0.0, 0.0, 0.0, 0.0, 0.0)",-0.03173828125,0.70849609375,0.3193359375,"(0.0, 0.0, 0.0, 0.0, 0.0, 0.0, 0.0, 0.0, 0.0)"
2022/11/28/22:55:17.868126,27,1669697717,867357969,RL_myo,0.7443427583027362,0.5038580951036562,-0.30036168213265807,-0.31916099082943894,"(0.0, 0.0, 0.0, 0.0, 0.0, 0.0, 0.0, 0.0, 0.0)",19.3125,13.8125,27.9375,"(0.0, 0.0, 0.0, 0.0, 0.0, 0.0, 0.0, 0.0, 0.0)",0.1279296875,0.740234375,0.2314453125,"(0.0, 0.0, 0.0, 0.0, 0.0, 0.0, 0.0, 0.0, 0.0)"
2022/11/28/22:55:17.888376,28,1669697717,887816905,RL_myo,0.741475766003957,0.5071552633953638,-0.3060388122113797,-0.3151943410968418,"(0.0, 0.0, 0.0, 0.0, 0.0, 0.0, 0.0, 0.0, 0.0)",28.4375,-10.0,22.25,"(0.0, 0.0, 0.0, 0.0, 0.0, 0.0, 0.0, 0.0, 0.0)",0.1611328125,1.10595703125,0.18359375,"(0.0, 0.0, 0.0, 0.0, 0.0, 0.0, 0.0, 0.0, 0.0)"
2022/11/28/22:55:17.904166,29,1669697717,903640747,RL_myo,0.7369594378967932,0.5105736042741987,-0.30683245770309586,-0.3194670944137664,"(0.0, 0.0, 0.0, 0.0, 0.0, 0.0, 0.0, 0.0, 0.0)",15.625,-14.9375,-36.25,"(0.0, 0.0, 0.0, 0.0, 0.0, 0.0, 0.0, 0.0, 0.0)",0.27685546875,1.4130859375,0.3427734375,"(0.0, 0.0, 0.0, 0.0, 0.0, 0.0, 0.0, 0.0, 0.0)"
2022/11/28/22:55:17.927212,30,1669697717,926784276,RL_myo,0.7369453742501068,0.5087327889990592,-0.30499553048929795,-0.32416074893509333,"(0.0, 0.0, 0.0, 0.0, 0.0, 0.0, 0.0, 0.0, 0.0)",-31.875,-7.5,-22.5,"(0.0, 0.0, 0.0, 0.0, 0.0, 0.0, 0.0, 0.0, 0.0)",0.158203125,1.1640625,0.18115234375,"(0.0, 0.0, 0.0, 0.0, 0.0, 0.0, 0.0, 0.0, 0.0)"
2022/11/28/22:55:17.948623,31,1669697717,947808504,RL_myo,0.7427946500049608,0.5004250891857579,-0.30120719784506833,-0.32726909723308134,"(0.0, 0.0, 0.0, 0.0, 0.0, 0.0, 0.0, 0.0, 0.0)",-70.1875,2.875,0.0625,"(0.0, 0.0, 0.0, 0.0, 0.0, 0.0, 0.0, 0.0, 0.0)",0.140625,0.99365234375,0.25244140625,"(0.0, 0.0, 0.0, 0.0, 0.0, 0.0, 0.0, 0.0, 0.0)"
2022/11/28/22:55:17.963997,32,1669697717,963540077,RL_myo,0.746714359254064,0.4956122770265653,-0.2972452942265238,-0.32928919144806895,"(0.0, 0.0, 0.0, 0.0, 0.0, 0.0, 0.0, 0.0, 0.0)",-39.0625,6.6875,0.0,"(0.0, 0.0, 0.0, 0.0, 0.0, 0.0, 0.0, 0.0, 0.0)",0.033203125,0.79345703125,0.337890625,"(0.0, 0.0, 0.0, 0.0, 0.0, 0.0, 0.0, 0.0, 0.0)"
2022/11/28/22:55:17.987484,33,1669697717,987030982,RL_myo,0.7452446867946284,0.4966466843937667,-0.2972433763054742,-0.33105709919525506,"(0.0, 0.0, 0.0, 0.0, 0.0, 0.0, 0.0, 0.0, 0.0)",5.625,-8.125,-4.6875,"(0.0, 0.0, 0.0, 0.0, 0.0, 0.0, 0.0, 0.0, 0.0)",-0.00537109375,0.88037109375,0.30859375,"(0.0, 0.0, 0.0, 0.0, 0.0, 0.0, 0.0, 0.0, 0.0)"
2022/11/28/22:55:18.009734,34,1669697718,9384632,RL_myo,0.7423162832145591,0.49963830738319204,-0.299074970214713,-0.3314849312726748,"(0.0, 0.0, 0.0, 0.0, 0.0, 0.0, 0.0, 0.0, 0.0)",18.4375,-9.75,-1.75,"(0.0, 0.0, 0.0, 0.0, 0.0, 0.0, 0.0, 0.0, 0.0)",0.0400390625,1.04150390625,0.2734375,"(0.0, 0.0, 0.0, 0.0, 0.0, 0.0, 0.0, 0.0, 0.0)"
2022/11/28/22:55:18.024290,35,1669697718,23942708,RL_myo,0.7413850296462444,0.5001770246110951,-0.29967897386705034,-0.3322103166513961,"(0.0, 0.0, 0.0, 0.0, 0.0, 0.0, 0.0, 0.0, 0.0)",1.25,-6.25,0.125,"(0.0, 0.0, 0.0, 0.0, 0.0, 0.0, 0.0, 0.0, 0.0)",0.06298828125,1.0400390625,0.30029296875,"(0.0, 0.0, 0.0, 0.0, 0.0, 0.0, 0.0, 0.0, 0.0)"
2022/11/28/22:55:18.047308,36,1669697718,46893119,RL_myo,0.7424863237420142,0.49816468346751497,-0.299557984128714,-0.33288289434352203,"(0.0, 0.0, 0.0, 0.0, 0.0, 0.0, 0.0, 0.0, 0.0)",-12.0,-4.125,4.5,"(0.0, 0.0, 0.0, 0.0, 0.0, 0.0, 0.0, 0.0, 0.0)",0.078125,0.94970703125,0.34326171875,"(0.0, 0.0, 0.0, 0.0, 0.0, 0.0, 0.0, 0.0, 0.0)"
2022/11/28/22:55:18.069618,37,1669697718,69126129,RL_myo,0.743436916660816,0.4964791362987748,-0.2989617420200884,-0.33381416233316935,"(0.0, 0.0, 0.0, 0.0, 0.0, 0.0, 0.0, 0.0, 0.0)",-9.8125,-2.5,0.375,"(0.0, 0.0, 0.0, 0.0, 0.0, 0.0, 0.0, 0.0, 0.0)",0.08740234375,0.89501953125,0.35791015625,"(0.0, 0.0, 0.0, 0.0, 0.0, 0.0, 0.0, 0.0, 0.0)"
2022/11/28/22:55:18.084166,38,1669697718,83718538,RL_myo,0.7432539121127432,0.4966623210036455,-0.2988397104134015,-0.33405836092576524,"(0.0, 0.0, 0.0, 0.0, 0.0, 0.0, 0.0, 0.0, 0.0)",5.0,-0.75,-2.0625,"(0.0, 0.0, 0.0, 0.0, 0.0, 0.0, 0.0, 0.0, 0.0)",0.10693359375,0.892578125,0.37890625,"(0.0, 0.0, 0.0, 0.0, 0.0, 0.0, 0.0, 0.0, 0.0)"
2022/11/28/22:55:18.107585,39,1669697718,106882333,RL_myo,0.7428294667446631,0.49739665772409697,-0.29853565504093243,-0.3341817034040288,"(0.0, 0.0, 0.0, 0.0, 0.0, 0.0, 0.0, 0.0, 0.0)",6.0,1.0,-3.0,"(0.0, 0.0, 0.0, 0.0, 0.0, 0.0, 0.0, 0.0, 0.0)",0.10400390625,0.93505859375,0.359375,"(0.0, 0.0, 0.0, 0.0, 0.0, 0.0, 0.0, 0.0, 0.0)"
2022/11/28/22:55:18.129478,40,1669697718,129051446,RL_myo,0.7423884023973037,0.49805881473008295,-0.29791973954626655,-0.3347248210759528,"(0.0, 0.0, 0.0, 0.0, 0.0, 0.0, 0.0, 0.0, 0.0)",2.125,0.75,-3.3125,"(0.0, 0.0, 0.0, 0.0, 0.0, 0.0, 0.0, 0.0, 0.0)",0.0693359375,0.98291015625,0.34619140625,"(0.0, 0.0, 0.0, 0.0, 0.0, 0.0, 0.0, 0.0, 0.0)"
2022/11/28/22:55:18.143922,41,1669697718,143647909,RL_myo,0.7420720242734239,0.49853958663146297,-0.2968776382682953,-0.3356353069155748,"(0.0, 0.0, 0.0, 0.0, 0.0, 0.0, 0.0, 0.0, 0.0)",-0.6875,1.0625,-5.0625,"(0.0, 0.0, 0.0, 0.0, 0.0, 0.0, 0.0, 0.0, 0.0)",0.068359375,1.005859375,0.35107421875,"(0.0, 0.0, 0.0, 0.0, 0.0, 0.0, 0.0, 0.0, 0.0)"
2022/11/28/22:55:18.167535,42,1669697718,166985750,RL_myo,0.7417593820953835,0.4989618158997581,-0.2943111775252151,-0.33795126295253336,"(0.0, 0.0, 0.0, 0.0, 0.0, 0.0, 0.0, 0.0, 0.0)",-5.1875,2.125,-12.3125,"(0.0, 0.0, 0.0, 0.0, 0.0, 0.0, 0.0, 0.0, 0.0)",0.009765625,0.99169921875,0.3603515625,"(0.0, 0.0, 0.0, 0.0, 0.0, 0.0, 0.0, 0.0, 0.0)"
2022/11/28/22:55:18.190926,43,1669697718,189629077,RL_myo,0.7403047165794986,0.5007387166970242,-0.2899816727239837,-0.34222842327160097,"(0.0, 0.0, 0.0, 0.0, 0.0, 0.0, 0.0, 0.0, 0.0)",-5.375,2.625,-23.125,"(0.0, 0.0, 0.0, 0.0, 0.0, 0.0, 0.0, 0.0, 0.0)",-0.11083984375,0.98974609375,0.32421875,"(0.0, 0.0, 0.0, 0.0, 0.0, 0.0, 0.0, 0.0, 0.0)"
2022/11/28/22:55:18.211805,44,1669697718,210128307,RL_myo,0.7373151951260029,0.5045848276578365,-0.2838175213026418,-0.3481494927979073,"(0.0, 0.0, 0.0, 0.0, 0.0, 0.0, 0.0, 0.0, 0.0)",-0.875,4.625,-33.875,"(0.0, 0.0, 0.0, 0.0, 0.0, 0.0, 0.0, 0.0, 0.0)",-0.23974609375,1.05859375,0.31396484375,"(0.0, 0.0, 0.0, 0.0, 0.0, 0.0, 0.0, 0.0, 0.0)"
2022/11/28/22:55:18.226953,45,1669697718,226524114,RL_myo,0.7330471628990212,0.50965393923454,-0.27625074598509325,-0.35578117506564483,"(0.0, 0.0, 0.0, 0.0, 0.0, 0.0, 0.0, 0.0, 0.0)",3.8125,4.875,-47.0625,"(0.0, 0.0, 0.0, 0.0, 0.0, 0.0, 0.0, 0.0, 0.0)",-0.30908203125,1.13427734375,0.36279296875,"(0.0, 0.0, 0.0, 0.0, 0.0, 0.0, 0.0, 0.0, 0.0)"
2022/11/28/22:55:18.249709,46,1669697718,249290466,RL_myo,0.7278858745221843,0.5151661870832064,-0.26741031583074965,-0.36507215224462763,"(0.0, 0.0, 0.0, 0.0, 0.0, 0.0, 0.0, 0.0, 0.0)",6.875,6.5,-65.75,"(0.0, 0.0, 0.0, 0.0, 0.0, 0.0, 0.0, 0.0, 0.0)",-0.2607421875,1.10302734375,0.39990234375,"(0.0, 0.0, 0.0, 0.0, 0.0, 0.0, 0.0, 0.0, 0.0)"
2022/11/28/22:55:18.270787,47,1669697718,270276308,RL_myo,0.7221817111197067,0.5212501532253462,-0.2569628975501999,-0.37512920863266713,"(0.0, 0.0, 0.0, 0.0, 0.0, 0.0, 0.0, 0.0, 0.0)",11.0,14.0,-82.4375,"(0.0, 0.0, 0.0, 0.0, 0.0, 0.0, 0.0, 0.0, 0.0)",-0.1943359375,1.1533203125,0.4873046875,"(0.0, 0.0, 0.0, 0.0, 0.0, 0.0, 0.0, 0.0, 0.0)"
2022/11/28/22:55:18.287791,48,1669697718,287234783,RL_myo,0.7148576126522721,0.5289409213835886,-0.24585437702897472,-0.38568863168969497,"(0.0, 0.0, 0.0, 0.0, 0.0, 0.0, 0.0, 0.0, 0.0)",15.875,20.0625,-103.625,"(0.0, 0.0, 0.0, 0.0, 0.0, 0.0, 0.0, 0.0, 0.0)",-0.09521484375,1.20166015625,0.5068359375,"(0.0, 0.0, 0.0, 0.0, 0.0, 0.0, 0.0, 0.0, 0.0)"
2022/11/28/22:55:18.309875,49,1669697718,309418439,RL_myo,0.707335355960066,0.5365592470657469,-0.2310177169996419,-0.39800965192989823,"(0.0, 0.0, 0.0, 0.0, 0.0, 0.0, 0.0, 0.0, 0.0)",4.9375,30.125,-124.3125,"(0.0, 0.0, 0.0, 0.0, 0.0, 0.0, 0.0, 0.0, 0.0)",-0.06103515625,1.2158203125,0.46923828125,"(0.0, 0.0, 0.0, 0.0, 0.0, 0.0, 0.0, 0.0, 0.0)"
2022/11/28/22:55:18.330973,50,1669697718,330095291,RL_myo,0.7000093985028201,0.5440041650410354,-0.21264563121316812,-0.41088702334301025,"(0.0, 0.0, 0.0, 0.0, 0.0, 0.0, 0.0, 0.0, 0.0)",-5.75,42.9375,-136.9375,"(0.0, 0.0, 0.0, 0.0, 0.0, 0.0, 0.0, 0.0, 0.0)",-0.07373046875,1.1630859375,0.4267578125,"(0.0, 0.0, 0.0, 0.0, 0.0, 0.0, 0.0, 0.0, 0.0)"
2022/11/28/22:55:18.347957,51,1669697718,347213268,RL_myo,0.6925855178398361,0.5518344643333003,-0.19299862584027158,-0.4225583449374447,"(0.0, 0.0, 0.0, 0.0, 0.0, 0.0, 0.0, 0.0, 0.0)",-4.8125,52.6875,-137.8125,"(0.0, 0.0, 0.0, 0.0, 0.0, 0.0, 0.0, 0.0, 0.0)",-0.0625,1.06787109375,0.423828125,"(0.0, 0.0, 0.0, 0.0, 0.0, 0.0, 0.0, 0.0, 0.0)"
2022/11/28/22:55:18.369660,52,1669697718,369285106,RL_myo,0.6843464334450491,0.5606855456320211,-0.17328393904303374,-0.4327520703822153,"(0.0, 0.0, 0.0, 0.0, 0.0, 0.0, 0.0, 0.0, 0.0)",2.75,59.4375,-135.375,"(0.0, 0.0, 0.0, 0.0, 0.0, 0.0, 0.0, 0.0, 0.0)",-0.08251953125,0.9716796875,0.3876953125,"(0.0, 0.0, 0.0, 0.0, 0.0, 0.0, 0.0, 0.0, 0.0)"
2022/11/28/22:55:18.390568,53,1669697718,390037059,RL_myo,0.6756386026766755,0.5702340979953189,-0.154231142634504,-0.44108764060924427,"(0.0, 0.0, 0.0, 0.0, 0.0, 0.0, 0.0, 0.0, 0.0)",10.25,64.25,-127.875,"(0.0, 0.0, 0.0, 0.0, 0.0, 0.0, 0.0, 0.0, 0.0)",-0.1123046875,0.88330078125,0.3125,"(0.0, 0.0, 0.0, 0.0, 0.0, 0.0, 0.0, 0.0, 0.0)"
2022/11/28/22:55:18.407763,54,1669697718,407150506,RL_myo,0.6672976068972699,0.5797731608814751,-0.13592534259217234,-0.4473268234656628,"(0.0, 0.0, 0.0, 0.0, 0.0, 0.0, 0.0, 0.0, 0.0)",13.5,68.3125,-115.9375,"(0.0, 0.0, 0.0, 0.0, 0.0, 0.0, 0.0, 0.0, 0.0)",-0.14013671875,0.7939453125,0.32080078125,"(0.0, 0.0, 0.0, 0.0, 0.0, 0.0, 0.0, 0.0, 0.0)"
2022/11/28/22:55:18.429735,55,1669697718,429209232,RL_myo,0.6588856124702251,0.5893653982410832,-0.1193257408410644,-0.4519729467662823,"(0.0, 0.0, 0.0, 0.0, 0.0, 0.0, 0.0, 0.0, 0.0)",19.8125,67.25,-104.4375,"(0.0, 0.0, 0.0, 0.0, 0.0, 0.0, 0.0, 0.0, 0.0)",-0.14453125,0.72265625,0.3203125,"(0.0, 0.0, 0.0, 0.0, 0.0, 0.0, 0.0, 0.0, 0.0)"
2022/11/28/22:55:18.451147,56,1669697718,450315475,RL_myo,0.651390155838894,0.5981045855570954,-0.10705943903124251,-0.45442276145245186,"(0.0, 0.0, 0.0, 0.0, 0.0, 0.0, 0.0, 0.0, 0.0)",29.6875,61.8125,-88.5,"(0.0, 0.0, 0.0, 0.0, 0.0, 0.0, 0.0, 0.0, 0.0)",-0.115234375,0.68701171875,0.28564453125,"(0.0, 0.0, 0.0, 0.0, 0.0, 0.0, 0.0, 0.0, 0.0)"
2022/11/28/22:55:18.468057,57,1669697718,467444658,RL_myo,0.6441701816849771,0.6068774034957104,-0.09649735240135957,-0.4554479719284915,"(0.0, 0.0, 0.0, 0.0, 0.0, 0.0, 0.0, 0.0, 0.0)",32.75,58.75,-75.875,"(0.0, 0.0, 0.0, 0.0, 0.0, 0.0, 0.0, 0.0, 0.0)",-0.14892578125,0.68505859375,0.248046875,"(0.0, 0.0, 0.0, 0.0, 0.0, 0.0, 0.0, 0.0, 0.0)"
2022/11/28/22:55:18.489757,58,1669697718,489306926,RL_myo,0.6380768970103797,0.6145167590492159,-0.08697719325041046,-0.4556994560053085,"(0.0, 0.0, 0.0, 0.0, 0.0, 0.0, 0.0, 0.0, 0.0)",27.625,55.0,-62.1875,"(0.0, 0.0, 0.0, 0.0, 0.0, 0.0, 0.0, 0.0, 0.0)",-0.21728515625,0.67626953125,0.23388671875,"(0.0, 0.0, 0.0, 0.0, 0.0, 0.0, 0.0, 0.0, 0.0)"
2022/11/28/22:55:18.510582,59,1669697718,510140895,RL_myo,0.6335096172201186,0.6208748267042149,-0.07965411412200162,-0.4547914209371908,"(0.0, 0.0, 0.0, 0.0, 0.0, 0.0, 0.0, 0.0, 0.0)",22.75,46.6875,-42.75,"(0.0, 0.0, 0.0, 0.0, 0.0, 0.0, 0.0, 0.0, 0.0)",-0.27099609375,0.65673828125,0.20458984375,"(0.0, 0.0, 0.0, 0.0, 0.0, 0.0, 0.0, 0.0, 0.0)"
2022/11/28/22:55:18.527197,60,1669697718,526853322,RL_myo,0.630592706337386,0.6257706345340123,-0.07434536020897649,-0.4530305939827779,"(0.0, 0.0, 0.0, 0.0, 0.0, 0.0, 0.0, 0.0, 0.0)",17.1875,39.375,-27.5625,"(0.0, 0.0, 0.0, 0.0, 0.0, 0.0, 0.0, 0.0, 0.0)",-0.287109375,0.67578125,0.1962890625,"(0.0, 0.0, 0.0, 0.0, 0.0, 0.0, 0.0, 0.0, 0.0)"
2022/11/28/22:55:18.549806,61,1669697718,549370527,RL_myo,0.6289888016449674,0.6293550251102629,-0.07025386809251406,-0.4509431602671537,"(0.0, 0.0, 0.0, 0.0, 0.0, 0.0, 0.0, 0.0, 0.0)",10.5,32.25,-15.5625,"(0.0, 0.0, 0.0, 0.0, 0.0, 0.0, 0.0, 0.0, 0.0)",-0.33251953125,0.67578125,0.1806640625,"(0.0, 0.0, 0.0, 0.0, 0.0, 0.0, 0.0, 0.0, 0.0)"
2022/11/28/22:55:18.570860,62,1669697718,570226669,RL_myo,0.6286649138775229,0.63196082701824,-0.06695586509938277,-0.44824418713752695,"(0.0, 0.0, 0.0, 0.0, 0.0, 0.0, 0.0, 0.0, 0.0)",2.0,27.8125,-3.9375,"(0.0, 0.0, 0.0, 0.0, 0.0, 0.0, 0.0, 0.0, 0.0)",-0.41162109375,0.72314453125,0.14599609375,"(0.0, 0.0, 0.0, 0.0, 0.0, 0.0, 0.0, 0.0, 0.0)"
2022/11/28/22:55:18.587371,63,1669697718,586788654,RL_myo,0.6294063768943341,0.6329464825828399,-0.06359982978315518,-0.4462974619716225,"(0.0, 0.0, 0.0, 0.0, 0.0, 0.0, 0.0, 0.0, 0.0)",-6.625,20.875,0.375,"(0.0, 0.0, 0.0, 0.0, 0.0, 0.0, 0.0, 0.0, 0.0)",-0.4951171875,0.75244140625,0.17431640625,"(0.0, 0.0, 0.0, 0.0, 0.0, 0.0, 0.0, 0.0, 0.0)"
2022/11/28/22:55:18.609253,64,1669697718,608963727,RL_myo,0.6300277727003101,0.6330186040181085,-0.061342560701783726,-0.44563386635196317,"(0.0, 0.0, 0.0, 0.0, 0.0, 0.0, 0.0, 0.0, 0.0)",-6.5625,10.3125,1.0625,"(0.0, 0.0, 0.0, 0.0, 0.0, 0.0, 0.0, 0.0, 0.0)",-0.50927734375,0.73876953125,0.1787109375,"(0.0, 0.0, 0.0, 0.0, 0.0, 0.0, 0.0, 0.0, 0.0)"
2022/11/28/22:55:18.630840,65,1669697718,630315065,RL_myo,0.6302120528998812,0.6332639272480647,-0.06134267439848723,-0.44502431745210985,"(0.0, 0.0, 0.0, 0.0, 0.0, 0.0, 0.0, 0.0, 0.0)",2.125,3.75,3.8125,"(0.0, 0.0, 0.0, 0.0, 0.0, 0.0, 0.0, 0.0, 0.0)",-0.47119140625,0.7900390625,0.20458984375,"(0.0, 0.0, 0.0, 0.0, 0.0, 0.0, 0.0, 0.0, 0.0)"
2022/11/28/22:55:18.654696,66,1669697718,654377698,RL_myo,0.6303329736595371,0.6333848424193876,-0.06195293582496661,-0.4445962409350313,"(0.0, 0.0, 0.0, 0.0, 0.0, 0.0, 0.0, 0.0, 0.0)",1.0625,-0.375,2.625,"(0.0, 0.0, 0.0, 0.0, 0.0, 0.0, 0.0, 0.0, 0.0)",-0.4580078125,0.83984375,0.1796875,"(0.0, 0.0, 0.0, 0.0, 0.0, 0.0, 0.0, 0.0, 0.0)"
2022/11/28/22:55:18.670489,67,1669697718,669203519,RL_myo,0.6307613327088177,0.6332028319645129,-0.062075118576046806,-0.4442307895737155,"(0.0, 0.0, 0.0, 0.0, 0.0, 0.0, 0.0, 0.0, 0.0)",-3.0,-0.25,3.0625,"(0.0, 0.0, 0.0, 0.0, 0.0, 0.0, 0.0, 0.0, 0.0)",-0.4921875,0.8662109375,0.169921875,"(0.0, 0.0, 0.0, 0.0, 0.0, 0.0, 0.0, 0.0, 0.0)"
2022/11/28/22:55:18.690692,68,1669697718,690155744,RL_myo,0.6310647850221284,0.632956941742864,-0.06238013447070463,-0.4441074935507308,"(0.0, 0.0, 0.0, 0.0, 0.0, 0.0, 0.0, 0.0, 0.0)",-1.75,-1.375,1.8125,"(0.0, 0.0, 0.0, 0.0, 0.0, 0.0, 0.0, 0.0, 0.0)",-0.474609375,0.8544921875,0.18603515625,"(0.0, 0.0, 0.0, 0.0, 0.0, 0.0, 0.0, 0.0, 0.0)"
2022/11/28/22:55:18.707129,69,1669697718,706799507,RL_myo,0.6312382855886739,0.6325200496572643,-0.0629285121293679,-0.44440591349556513,"(0.0, 0.0, 0.0, 0.0, 0.0, 0.0, 0.0, 0.0, 0.0)",-0.5625,-3.375,-1.25,"(0.0, 0.0, 0.0, 0.0, 0.0, 0.0, 0.0, 0.0, 0.0)",-0.4345703125,0.845703125,0.1943359375,"(0.0, 0.0, 0.0, 0.0, 0.0, 0.0, 0.0, 0.0, 0.0)"
2022/11/28/22:55:18.730421,70,1669697718,729238271,RL_myo,0.6311208823268777,0.6325247295506222,-0.06317312506850276,-0.44453127524048847,"(0.0, 0.0, 0.0, 0.0, 0.0, 0.0, 0.0, 0.0, 0.0)",0.9375,-1.125,-1.75,"(0.0, 0.0, 0.0, 0.0, 0.0, 0.0, 0.0, 0.0, 0.0)",-0.44580078125,0.849609375,0.1875,"(0.0, 0.0, 0.0, 0.0, 0.0, 0.0, 0.0, 0.0, 0.0)"
2022/11/28/22:55:18.750817,71,1669697718,750125169,RL_myo,0.6308075070305379,0.6326996243714132,-0.062439872248886336,-0.44483068323546787,"(0.0, 0.0, 0.0, 0.0, 0.0, 0.0, 0.0, 0.0, 0.0)",-0.5,1.75,-3.8125,"(0.0, 0.0, 0.0, 0.0, 0.0, 0.0, 0.0, 0.0, 0.0)",-0.48974609375,0.83984375,0.1826171875,"(0.0, 0.0, 0.0, 0.0, 0.0, 0.0, 0.0, 0.0, 0.0)"
2022/11/28/22:55:18.767931,72,1669697718,767414569,RL_myo,0.6300827784283183,0.6333177282739737,-0.0617081942256156,-0.4450802693305529,"(0.0, 0.0, 0.0, 0.0, 0.0, 0.0, 0.0, 0.0, 0.0)",2.8125,2.5,-4.5,"(0.0, 0.0, 0.0, 0.0, 0.0, 0.0, 0.0, 0.0, 0.0)",-0.4990234375,0.8427734375,0.18896484375,"(0.0, 0.0, 0.0, 0.0, 0.0, 0.0, 0.0, 0.0, 0.0)"
2022/11/28/22:55:18.789652,73,1669697718,789278507,RL_myo,0.6292774940437927,0.6342213812423909,-0.06158496522698224,-0.44494984787383596,"(0.0, 0.0, 0.0, 0.0, 0.0, 0.0, 0.0, 0.0, 0.0)",6.125,3.3125,-2.6875,"(0.0, 0.0, 0.0, 0.0, 0.0, 0.0, 0.0, 0.0, 0.0)",-0.47265625,0.83837890625,0.1845703125,"(0.0, 0.0, 0.0, 0.0, 0.0, 0.0, 0.0, 0.0, 0.0)"
2022/11/28/22:55:18.810576,74,1669697718,810087442,RL_myo,0.6291447035494322,0.6348819563757463,-0.06103460453525729,-0.4442708864121378,"(0.0, 0.0, 0.0, 0.0, 0.0, 0.0, 0.0, 0.0, 0.0)",1.1875,5.8125,0.1875,"(0.0, 0.0, 0.0, 0.0, 0.0, 0.0, 0.0, 0.0, 0.0)",-0.49072265625,0.84423828125,0.18017578125,"(0.0, 0.0, 0.0, 0.0, 0.0, 0.0, 0.0, 0.0, 0.0)"
2022/11/28/22:55:18.826980,75,1669697718,826597452,RL_myo,0.6295952335158376,0.6348444036643943,-0.05975508808647649,-0.44386006186400107,"(0.0, 0.0, 0.0, 0.0, 0.0, 0.0, 0.0, 0.0, 0.0)",-5.125,5.3125,0.9375,"(0.0, 0.0, 0.0, 0.0, 0.0, 0.0, 0.0, 0.0, 0.0)",-0.52099609375,0.822265625,0.17333984375,"(0.0, 0.0, 0.0, 0.0, 0.0, 0.0, 0.0, 0.0, 0.0)"
2022/11/28/22:55:18.849661,76,1669697718,849225521,RL_myo,0.6297059024180074,0.6347718702284848,-0.058960541023145796,-0.4439130588626702,"(0.0, 0.0, 0.0, 0.0, 0.0, 0.0, 0.0, 0.0, 0.0)",-2.8125,1.4375,0.3125,"(0.0, 0.0, 0.0, 0.0, 0.0, 0.0, 0.0, 0.0, 0.0)",-0.51611328125,0.80615234375,0.17529296875,"(0.0, 0.0, 0.0, 0.0, 0.0, 0.0, 0.0, 0.0, 0.0)"
2022/11/28/22:55:18.878181,77,1669697718,877690076,RL_myo,0.6296075245898578,0.6346126449986187,-0.058840683829822875,-0.444295993358175,"(0.0, 0.0, 0.0, 0.0, 0.0, 0.0, 0.0, 0.0, 0.0)",-0.5625,-1.625,-0.1875,"(0.0, 0.0, 0.0, 0.0, 0.0, 0.0, 0.0, 0.0, 0.0)",-0.49169921875,0.802734375,0.17822265625,"(0.0, 0.0, 0.0, 0.0, 0.0, 0.0, 0.0, 0.0, 0.0)"
2022/11/28/22:55:18.886814,78,1669697718,886493682,RL_myo,0.629229320604127,0.6346005671084594,-0.05938889600813032,-0.4447758326939832,"(0.0, 0.0, 0.0, 0.0, 0.0, 0.0, 0.0, 0.0, 0.0)",2.6875,-4.0,0.0,"(0.0, 0.0, 0.0, 0.0, 0.0, 0.0, 0.0, 0.0, 0.0)",-0.4755859375,0.80615234375,0.18212890625,"(0.0, 0.0, 0.0, 0.0, 0.0, 0.0, 0.0, 0.0, 0.0)"
2022/11/28/22:55:18.910702,79,1669697718,909597873,RL_myo,0.6289712754692133,0.6342203322077239,-0.060303116949401527,-0.4455594673386955,"(0.0, 0.0, 0.0, 0.0, 0.0, 0.0, 0.0, 0.0, 0.0)",1.5625,-7.3125,1.8125,"(0.0, 0.0, 0.0, 0.0, 0.0, 0.0, 0.0, 0.0, 0.0)",-0.5009765625,0.814453125,0.177734375,"(0.0, 0.0, 0.0, 0.0, 0.0, 0.0, 0.0, 0.0, 0.0)"
2022/11/28/22:55:18.932314,80,1669697718,931874752,RL_myo,0.6289822216882526,0.6332547840869113,-0.06079245927234348,-0.44684899029400266,"(0.0, 0.0, 0.0, 0.0, 0.0, 0.0, 0.0, 0.0, 0.0)",-3.6875,-10.6875,1.75,"(0.0, 0.0, 0.0, 0.0, 0.0, 0.0, 0.0, 0.0, 0.0)",-0.53857421875,0.81103515625,0.16650390625,"(0.0, 0.0, 0.0, 0.0, 0.0, 0.0, 0.0, 0.0, 0.0)"
2022/11/28/22:55:18.952991,81,1669697718,952494859,RL_myo,0.6288048043947552,0.6319176994660163,-0.06122026973480289,-0.4489282990024679,"(0.0, 0.0, 0.0, 0.0, 0.0, 0.0, 0.0, 0.0, 0.0)",-6.4375,-15.6875,1.8125,"(0.0, 0.0, 0.0, 0.0, 0.0, 0.0, 0.0, 0.0, 0.0)",-0.59326171875,0.798828125,0.14453125,"(0.0, 0.0, 0.0, 0.0, 0.0, 0.0, 0.0, 0.0, 0.0)"
2022/11/28/22:55:18.969765,82,1669697718,969303369,RL_myo,0.6279504327342784,0.6302698452968662,-0.06225791615367069,-0.45228544970460766,"(0.0, 0.0, 0.0, 0.0, 0.0, 0.0, 0.0, 0.0, 0.0)",-4.1875,-25.0,1.5625,"(0.0, 0.0, 0.0, 0.0, 0.0, 0.0, 0.0, 0.0, 0.0)",-0.6416015625,0.77490234375,0.12646484375,"(0.0, 0.0, 0.0, 0.0, 0.0, 0.0, 0.0, 0.0, 0.0)"
2022/11/28/22:55:18.992235,83,1669697718,991872787,RL_myo,0.6260288603575591,0.6286533354472905,-0.06420808824180094,-0.4569028028309142,"(0.0, 0.0, 0.0, 0.0, 0.0, 0.0, 0.0, 0.0, 0.0)",-0.125,-35.0,2.0625,"(0.0, 0.0, 0.0, 0.0, 0.0, 0.0, 0.0, 0.0, 0.0)",-0.69970703125,0.73583984375,0.10107421875,"(0.0, 0.0, 0.0, 0.0, 0.0, 0.0, 0.0, 0.0, 0.0)"
2022/11/28/22:55:19.006805,84,1669697719,6333351,RL_myo,0.6236134223813405,0.6268483750471143,-0.06756778492474738,-0.4621709733064021,"(0.0, 0.0, 0.0, 0.0, 0.0, 0.0, 0.0, 0.0, 0.0)",2.625,-45.5625,8.5,"(0.0, 0.0, 0.0, 0.0, 0.0, 0.0, 0.0, 0.0, 0.0)",-0.78076171875,0.72607421875,0.0712890625,"(0.0, 0.0, 0.0, 0.0, 0.0, 0.0, 0.0, 0.0, 0.0)"
2022/11/28/22:55:19.029736,85,1669697719,28816223,RL_myo,0.6211073159872098,0.6242812134352577,-0.07342689673079927,-0.4680888370976722,"(0.0, 0.0, 0.0, 0.0, 0.0, 0.0, 0.0, 0.0, 0.0)",5.75,-60.375,20.3125,"(0.0, 0.0, 0.0, 0.0, 0.0, 0.0, 0.0, 0.0, 0.0)",-0.86181640625,0.72119140625,0.06396484375,"(0.0, 0.0, 0.0, 0.0, 0.0, 0.0, 0.0, 0.0, 0.0)"
2022/11/28/22:55:19.053000,86,1669697719,52441120,RL_myo,0.6183693889465164,0.6205667335326455,-0.08270560872791725,-0.4750536920512029,"(0.0, 0.0, 0.0, 0.0, 0.0, 0.0, 0.0, 0.0, 0.0)",12.875,-79.5625,31.8125,"(0.0, 0.0, 0.0, 0.0, 0.0, 0.0, 0.0, 0.0, 0.0)",-0.89794921875,0.70703125,0.08984375,"(0.0, 0.0, 0.0, 0.0, 0.0, 0.0, 0.0, 0.0, 0.0)"
2022/11/28/22:55:19.074047,87,1669697719,73367834,RL_myo,0.6157307946208748,0.615364578842948,-0.0966809653726671,-0.48255032338150633,"(0.0, 0.0, 0.0, 0.0, 0.0, 0.0, 0.0, 0.0, 0.0)",23.0625,-99.8125,44.75,"(0.0, 0.0, 0.0, 0.0, 0.0, 0.0, 0.0, 0.0, 0.0)",-0.84033203125,0.71484375,0.1533203125,"(0.0, 0.0, 0.0, 0.0, 0.0, 0.0, 0.0, 0.0, 0.0)"
2022/11/28/22:55:19.089712,88,1669697719,89331388,RL_myo,0.6142240917534119,0.6085475697884841,-0.1189017719105283,-0.48811985111319034,"(0.0, 0.0, 0.0, 0.0, 0.0, 0.0, 0.0, 0.0, 0.0)",39.25,-119.3125,63.625,"(0.0, 0.0, 0.0, 0.0, 0.0, 0.0, 0.0, 0.0, 0.0)",-0.73876953125,0.75732421875,0.19287109375,"(0.0, 0.0, 0.0, 0.0, 0.0, 0.0, 0.0, 0.0, 0.0)"
2022/11/28/22:55:19.112720,89,1669697719,112064838,RL_myo,0.614501051182909,0.5989981442500069,-0.14526345866262647,-0.4924309178529708,"(0.0, 0.0, 0.0, 0.0, 0.0, 0.0, 0.0, 0.0, 0.0)",35.8125,-135.875,87.875,"(0.0, 0.0, 0.0, 0.0, 0.0, 0.0, 0.0, 0.0, 0.0)",-0.64599609375,0.7998046875,0.1962890625,"(0.0, 0.0, 0.0, 0.0, 0.0, 0.0, 0.0, 0.0, 0.0)"
2022/11/28/22:55:19.133298,90,1669697719,132734298,RL_myo,0.6181107159127167,0.5849682138152935,-0.1740744309058031,-0.49542852582833236,"(0.0, 0.0, 0.0, 0.0, 0.0, 0.0, 0.0, 0.0, 0.0)",17.4375,-149.375,113.6875,"(0.0, 0.0, 0.0, 0.0, 0.0, 0.0, 0.0, 0.0, 0.0)",-0.54931640625,0.8115234375,0.26171875,"(0.0, 0.0, 0.0, 0.0, 0.0, 0.0, 0.0, 0.0, 0.0)"
2022/11/28/22:55:19.149975,91,1669697719,149320602,RL_myo,0.6241390940590023,0.5666445676944825,-0.20623567365786902,-0.4968210664619869,"(0.0, 0.0, 0.0, 0.0, 0.0, 0.0, 0.0, 0.0, 0.0)",5.25,-164.8125,140.375,"(0.0, 0.0, 0.0, 0.0, 0.0, 0.0, 0.0, 0.0, 0.0)",-0.3994140625,0.8203125,0.2861328125,"(0.0, 0.0, 0.0, 0.0, 0.0, 0.0, 0.0, 0.0, 0.0)"
2022/11/28/22:55:19.173465,92,1669697719,172946214,RL_myo,0.6308017401865803,0.5452910253340018,-0.24139534421266812,-0.4964626371241068,"(0.0, 0.0, 0.0, 0.0, 0.0, 0.0, 0.0, 0.0, 0.0)",4.0,-177.125,158.5,"(0.0, 0.0, 0.0, 0.0, 0.0, 0.0, 0.0, 0.0, 0.0)",-0.14794921875,0.83544921875,0.35595703125,"(0.0, 0.0, 0.0, 0.0, 0.0, 0.0, 0.0, 0.0, 0.0)"
2022/11/28/22:55:19.192987,93,1669697719,192509889,RL_myo,0.6373807162444891,0.5211104620602747,-0.2781330962296406,-0.4948046985151846,"(0.0, 0.0, 0.0, 0.0, 0.0, 0.0, 0.0, 0.0, 0.0)",0.625,-185.5625,168.125,"(0.0, 0.0, 0.0, 0.0, 0.0, 0.0, 0.0, 0.0, 0.0)",0.16748046875,0.841796875,0.37744140625,"(0.0, 0.0, 0.0, 0.0, 0.0, 0.0, 0.0, 0.0, 0.0)"
2022/11/28/22:55:19.209597,94,1669697719,209270715,RL_myo,0.6446085893562691,0.49476349070371334,-0.3151935191208951,-0.49024677489911495,"(0.0, 0.0, 0.0, 0.0, 0.0, 0.0, 0.0, 0.0, 0.0)",-3.5,-182.0625,182.0,"(0.0, 0.0, 0.0, 0.0, 0.0, 0.0, 0.0, 0.0, 0.0)",0.4267578125,0.89990234375,0.3994140625,"(0.0, 0.0, 0.0, 0.0, 0.0, 0.0, 0.0, 0.0, 0.0)"
2022/11/28/22:55:19.232571,95,1669697719,232206821,RL_myo,0.6529970067771851,0.46635668088461274,-0.3461817947883161,-0.48607048901518857,"(0.0, 0.0, 0.0, 0.0, 0.0, 0.0, 0.0, 0.0, 0.0)",-33.25,-163.8125,167.6875,"(0.0, 0.0, 0.0, 0.0, 0.0, 0.0, 0.0, 0.0, 0.0)",0.63916015625,0.7177734375,0.2958984375,"(0.0, 0.0, 0.0, 0.0, 0.0, 0.0, 0.0, 0.0, 0.0)"
2022/11/28/22:55:19.253298,96,1669697719,252470493,RL_myo,0.6582624411531957,0.44171027228796267,-0.37231348085623495,-0.4826647551821485,"(0.0, 0.0, 0.0, 0.0, 0.0, 0.0, 0.0, 0.0, 0.0)",-25.375,-143.5,135.3125,"(0.0, 0.0, 0.0, 0.0, 0.0, 0.0, 0.0, 0.0, 0.0)",0.70166015625,0.65234375,0.30908203125,"(0.0, 0.0, 0.0, 0.0, 0.0, 0.0, 0.0, 0.0, 0.0)"
2022/11/28/22:55:19.269980,97,1669697719,269437789,RL_myo,0.6589963132139982,0.42425519803190714,-0.3959959322156544,-0.478454394673014,"(0.0, 0.0, 0.0, 0.0, 0.0, 0.0, 0.0, 0.0, 0.0)",6.375,-122.3125,106.9375,"(0.0, 0.0, 0.0, 0.0, 0.0, 0.0, 0.0, 0.0, 0.0)",0.5869140625,0.634765625,0.18115234375,"(0.0, 0.0, 0.0, 0.0, 0.0, 0.0, 0.0, 0.0, 0.0)"
2022/11/28/22:55:19.292673,98,1669697719,292098999,RL_myo,0.6576965980282853,0.4116707083983653,-0.41960505859729597,-0.4710562679642081,"(0.0, 0.0, 0.0, 0.0, 0.0, 0.0, 0.0, 0.0, 0.0)",30.125,-99.5,85.875,"(0.0, 0.0, 0.0, 0.0, 0.0, 0.0, 0.0, 0.0, 0.0)",0.5009765625,0.73828125,0.1337890625,"(0.0, 0.0, 0.0, 0.0, 0.0, 0.0, 0.0, 0.0, 0.0)"
2022/11/28/22:55:19.313132,99,1669697719,312548160,RL_myo,0.6552234755695386,0.40436474388897936,-0.43836190046953205,-0.4636919183886153,"(0.0, 0.0, 0.0, 0.0, 0.0, 0.0, 0.0, 0.0, 0.0)",36.5625,-71.875,67.625,"(0.0, 0.0, 0.0, 0.0, 0.0, 0.0, 0.0, 0.0, 0.0)",0.41259765625,0.8505859375,0.10693359375,"(0.0, 0.0, 0.0, 0.0, 0.0, 0.0, 0.0, 0.0, 0.0)"
2022/11/28/22:55:19.329555,100,1669697719,329137563,RL_myo,0.6541734448507323,0.39868081188327886,-0.4505605868527809,-0.4583730706128941,"(0.0, 0.0, 0.0, 0.0, 0.0, 0.0, 0.0, 0.0, 0.0)",17.125,-46.625,50.75,"(0.0, 0.0, 0.0, 0.0, 0.0, 0.0, 0.0, 0.0, 0.0)",0.35693359375,0.9326171875,0.1298828125,"(0.0, 0.0, 0.0, 0.0, 0.0, 0.0, 0.0, 0.0, 0.0)"
2022/11/28/22:55:19.353069,101,1669697719,351847410,RL_myo,0.654176606849831,0.39428819558218964,-0.4576428623026715,-0.45514041400253685,"(0.0, 0.0, 0.0, 0.0, 0.0, 0.0, 0.0, 0.0, 0.0)",1.5,-27.25,35.375,"(0.0, 0.0, 0.0, 0.0, 0.0, 0.0, 0.0, 0.0, 0.0)",0.30810546875,0.94921875,0.138671875,"(0.0, 0.0, 0.0, 0.0, 0.0, 0.0, 0.0, 0.0, 0.0)"
2022/11/28/22:55:19.373347,102,1669697719,372490406,RL_myo,0.655090036742849,0.39086896443689606,-0.46191385428769977,-0.45245340933334016,"(0.0, 0.0, 0.0, 0.0, 0.0, 0.0, 0.0, 0.0, 0.0)",-2.25,-13.5,25.25,"(0.0, 0.0, 0.0, 0.0, 0.0, 0.0, 0.0, 0.0, 0.0)",0.3427734375,0.95654296875,0.18994140625,"(0.0, 0.0, 0.0, 0.0, 0.0, 0.0, 0.0, 0.0, 0.0)"
2022/11/28/22:55:19.390101,103,1669697719,389564990,RL_myo,0.654670132992903,0.39069024065705504,-0.4649708253906335,-0.45007808695596374,"(0.0, 0.0, 0.0, 0.0, 0.0, 0.0, 0.0, 0.0, 0.0)",9.625,-6.0,13.3125,"(0.0, 0.0, 0.0, 0.0, 0.0, 0.0, 0.0, 0.0, 0.0)",0.31591796875,1.03173828125,0.22119140625,"(0.0, 0.0, 0.0, 0.0, 0.0, 0.0, 0.0, 0.0, 0.0)"
2022/11/28/22:55:19.412244,104,1669697719,411681175,RL_myo,0.6537510327187408,0.39306849507129965,-0.46502932670003605,-0.4492821727049436,"(0.0, 0.0, 0.0, 0.0, 0.0, 0.0, 0.0, 0.0, 0.0)",9.8125,5.5625,-3.5,"(0.0, 0.0, 0.0, 0.0, 0.0, 0.0, 0.0, 0.0, 0.0)",0.29541015625,1.19677734375,0.27880859375,"(0.0, 0.0, 0.0, 0.0, 0.0, 0.0, 0.0, 0.0, 0.0)"
2022/11/28/22:55:19.433159,105,1669697719,432478427,RL_myo,0.6556498520022989,0.3934387400862799,-0.4614939984164384,-0.4498361021464292,"(0.0, 0.0, 0.0, 0.0, 0.0, 0.0, 0.0, 0.0, 0.0)",-15.875,17.6875,-2.0625,"(0.0, 0.0, 0.0, 0.0, 0.0, 0.0, 0.0, 0.0, 0.0)",0.240234375,1.119140625,0.2763671875,"(0.0, 0.0, 0.0, 0.0, 0.0, 0.0, 0.0, 0.0, 0.0)"
2022/11/28/22:55:19.449569,106,1669697719,449158668,RL_myo,0.6572686513084118,0.39287197590047795,-0.45903217814937,-0.4504875025821699,"(0.0, 0.0, 0.0, 0.0, 0.0, 0.0, 0.0, 0.0, 0.0)",-14.3125,9.8125,0.0,"(0.0, 0.0, 0.0, 0.0, 0.0, 0.0, 0.0, 0.0, 0.0)",0.22265625,0.966796875,0.2763671875,"(0.0, 0.0, 0.0, 0.0, 0.0, 0.0, 0.0, 0.0, 0.0)"
2022/11/28/22:55:19.472908,107,1669697719,472427845,RL_myo,0.6569092157940604,0.3942187703069624,-0.4594641435006677,-0.4493935293033231,"(0.0, 0.0, 0.0, 0.0, 0.0, 0.0, 0.0, 0.0, 0.0)",13.5,2.5,-0.0625,"(0.0, 0.0, 0.0, 0.0, 0.0, 0.0, 0.0, 0.0, 0.0)",0.25390625,0.91552734375,0.3173828125,"(0.0, 0.0, 0.0, 0.0, 0.0, 0.0, 0.0, 0.0, 0.0)"
2022/11/28/22:55:19.493422,108,1669697719,492585420,RL_myo,0.6555295955043603,0.39630853478676087,-0.4603355874575312,-0.4486776588968857,"(0.0, 0.0, 0.0, 0.0, 0.0, 0.0, 0.0, 0.0, 0.0)",14.75,-0.25,-3.0,"(0.0, 0.0, 0.0, 0.0, 0.0, 0.0, 0.0, 0.0, 0.0)",0.24609375,1.01708984375,0.2802734375,"(0.0, 0.0, 0.0, 0.0, 0.0, 0.0, 0.0, 0.0, 0.0)"
2022/11/28/22:55:19.509785,109,1669697719,509300947,RL_myo,0.6553343420461423,0.39672843655582796,-0.4600218809725039,-0.4489134847489407,"(0.0, 0.0, 0.0, 0.0, 0.0, 0.0, 0.0, 0.0, 0.0)",-0.25,0.75,-1.3125,"(0.0, 0.0, 0.0, 0.0, 0.0, 0.0, 0.0, 0.0, 0.0)",0.23779296875,1.01025390625,0.27294921875,"(0.0, 0.0, 0.0, 0.0, 0.0, 0.0, 0.0, 0.0, 0.0)"
2022/11/28/22:55:19.532598,110,1669697719,531911849,RL_myo,0.6565106578189981,0.3952736165894228,-0.45862970275678244,-0.44990145581850455,"(0.0, 0.0, 0.0, 0.0, 0.0, 0.0, 0.0, 0.0, 0.0)",-11.6875,2.3125,-2.1875,"(0.0, 0.0, 0.0, 0.0, 0.0, 0.0, 0.0, 0.0, 0.0)",0.27294921875,0.8974609375,0.29541015625,"(0.0, 0.0, 0.0, 0.0, 0.0, 0.0, 0.0, 0.0, 0.0)"
2022/11/28/22:55:19.553481,111,1669697719,552799463,RL_myo,0.6571057638778339,0.3950202957289003,-0.4578255930566257,-0.4500741132115128,"(0.0, 0.0, 0.0, 0.0, 0.0, 0.0, 0.0, 0.0, 0.0)",-1.4375,3.3125,-2.8125,"(0.0, 0.0, 0.0, 0.0, 0.0, 0.0, 0.0, 0.0, 0.0)",0.26171875,0.8515625,0.29736328125,"(0.0, 0.0, 0.0, 0.0, 0.0, 0.0, 0.0, 0.0, 0.0)"
2022/11/28/22:55:19.570181,112,1669697719,569721937,RL_myo,0.656573785887839,0.3964345764935869,-0.45765457344863963,-0.4497808151164345,"(0.0, 0.0, 0.0, 0.0, 0.0, 0.0, 0.0, 0.0, 0.0)",9.5625,2.5625,-3.8125,"(0.0, 0.0, 0.0, 0.0, 0.0, 0.0, 0.0, 0.0, 0.0)",0.22509765625,0.89306640625,0.29931640625,"(0.0, 0.0, 0.0, 0.0, 0.0, 0.0, 0.0, 0.0, 0.0)"
2022/11/28/22:55:19.592266,113,1669697719,591806888,RL_myo,0.6564924800476797,0.3970937221262741,-0.4572131989621763,-0.44976692873478535,"(0.0, 0.0, 0.0, 0.0, 0.0, 0.0, 0.0, 0.0, 0.0)",3.75,3.0,-3.6875,"(0.0, 0.0, 0.0, 0.0, 0.0, 0.0, 0.0, 0.0, 0.0)",0.25048828125,0.9169921875,0.29443359375,"(0.0, 0.0, 0.0, 0.0, 0.0, 0.0, 0.0, 0.0, 0.0)"
2022/11/28/22:55:19.613289,114,1669697719,612791061,RL_myo,0.6567567999001714,0.39753318194700893,-0.4566779160644129,-0.4495366014186582,"(0.0, 0.0, 0.0, 0.0, 0.0, 0.0, 0.0, 0.0, 0.0)",2.5625,4.1875,-2.625,"(0.0, 0.0, 0.0, 0.0, 0.0, 0.0, 0.0, 0.0, 0.0)",0.2578125,0.8896484375,0.2919921875,"(0.0, 0.0, 0.0, 0.0, 0.0, 0.0, 0.0, 0.0, 0.0)"
2022/11/28/22:55:19.629728,115,1669697719,629276752,RL_myo,0.6568784502891762,0.3979601835983487,-0.4563114007026465,-0.4493532011734729,"(0.0, 0.0, 0.0, 0.0, 0.0, 0.0, 0.0, 0.0, 0.0)",2.75,2.875,-2.125,"(0.0, 0.0, 0.0, 0.0, 0.0, 0.0, 0.0, 0.0, 0.0)",0.2470703125,0.8896484375,0.28125,"(0.0, 0.0, 0.0, 0.0, 0.0, 0.0, 0.0, 0.0, 0.0)"
2022/11/28/22:55:19.653089,116,1669697719,652626514,RL_myo,0.6569708004658887,0.39806424755095937,-0.45610765439256656,-0.4493328718905493,"(0.0, 0.0, 0.0, 0.0, 0.0, 0.0, 0.0, 0.0, 0.0)",1.0,1.375,-1.4375,"(0.0, 0.0, 0.0, 0.0, 0.0, 0.0, 0.0, 0.0, 0.0)",0.2548828125,0.91064453125,0.2802734375,"(0.0, 0.0, 0.0, 0.0, 0.0, 0.0, 0.0, 0.0, 0.0)"
2022/11/28/22:55:19.673292,117,1669697719,672551870,RL_myo,0.6569630120073277,0.3983646952222062,-0.456102247187919,-0.44908341158955006,"(0.0, 0.0, 0.0, 0.0, 0.0, 0.0, 0.0, 0.0, 0.0)",1.8125,1.75,-1.3125,"(0.0, 0.0, 0.0, 0.0, 0.0, 0.0, 0.0, 0.0, 0.0)",0.25927734375,0.919921875,0.265625,"(0.0, 0.0, 0.0, 0.0, 0.0, 0.0, 0.0, 0.0, 0.0)"
2022/11/28/22:55:19.689732,118,1669697719,689255475,RL_myo,0.6567470180213487,0.39935834004774023,-0.45636593436297623,-0.44824815059003575,"(0.0, 0.0, 0.0, 0.0, 0.0, 0.0, 0.0, 0.0, 0.0)",6.3125,3.4375,-1.625,"(0.0, 0.0, 0.0, 0.0, 0.0, 0.0, 0.0, 0.0, 0.0)",0.2685546875,0.91845703125,0.24560546875,"(0.0, 0.0, 0.0, 0.0, 0.0, 0.0, 0.0, 0.0, 0.0)"
2022/11/28/22:55:19.712544,119,1669697719,711982250,RL_myo,0.6559263307286385,0.40147793835795886,-0.4571404314839027,-0.44676474745823336,"(0.0, 0.0, 0.0, 0.0, 0.0, 0.0, 0.0, 0.0, 0.0)",14.0,5.125,-2.5625,"(0.0, 0.0, 0.0, 0.0, 0.0, 0.0, 0.0, 0.0, 0.0)",0.2705078125,0.91943359375,0.228515625,"(0.0, 0.0, 0.0, 0.0, 0.0, 0.0, 0.0, 0.0, 0.0)"
2022/11/28/22:55:19.733495,120,1669697719,732684850,RL_myo,0.6546694342523803,0.4046670099844566,-0.4581953610789315,-0.44464542499800397,"(0.0, 0.0, 0.0, 0.0, 0.0, 0.0, 0.0, 0.0, 0.0)",19.375,7.25,-3.8125,"(0.0, 0.0, 0.0, 0.0, 0.0, 0.0, 0.0, 0.0, 0.0)",0.279296875,0.943359375,0.197265625,"(0.0, 0.0, 0.0, 0.0, 0.0, 0.0, 0.0, 0.0, 0.0)"
2022/11/28/22:55:19.748799,121,1669697719,748523235,RL_myo,0.6530324422114707,0.4087022369425187,-0.459362759144175,-0.4421503889503593,"(0.0, 0.0, 0.0, 0.0, 0.0, 0.0, 0.0, 0.0, 0.0)",22.4375,9.625,-6.1875,"(0.0, 0.0, 0.0, 0.0, 0.0, 0.0, 0.0, 0.0, 0.0)",0.29345703125,0.94287109375,0.1552734375,"(0.0, 0.0, 0.0, 0.0, 0.0, 0.0, 0.0, 0.0, 0.0)"
2022/11/28/22:55:19.772637,122,1669697719,771977424,RL_myo,0.65066532103081,0.4131053370296925,-0.4605318805982609,-0.440328295114096,"(0.0, 0.0, 0.0, 0.0, 0.0, 0.0, 0.0, 0.0, 0.0)",20.5,8.25,-11.6875,"(0.0, 0.0, 0.0, 0.0, 0.0, 0.0, 0.0, 0.0, 0.0)",0.29052734375,0.94140625,0.0947265625,"(0.0, 0.0, 0.0, 0.0, 0.0, 0.0, 0.0, 0.0, 0.0)"
2022/11/28/22:55:19.793069,123,1669697719,792495727,RL_myo,0.6484434207606323,0.41577528070608316,-0.460636530165709,-0.44098303040244435,"(0.0, 0.0, 0.0, 0.0, 0.0, 0.0, 0.0, 0.0, 0.0)",0.0625,3.125,-18.875,"(0.0, 0.0, 0.0, 0.0, 0.0, 0.0, 0.0, 0.0, 0.0)",0.2978515625,0.96826171875,0.03271484375,"(0.0, 0.0, 0.0, 0.0, 0.0, 0.0, 0.0, 0.0, 0.0)"
2022/11/28/22:55:19.808972,124,1669697719,808629274,RL_myo,0.6472174068766874,0.41583291145330736,-0.46014447665440833,-0.4432377224385613,"(0.0, 0.0, 0.0, 0.0, 0.0, 0.0, 0.0, 0.0, 0.0)",-14.4375,-2.6875,-18.4375,"(0.0, 0.0, 0.0, 0.0, 0.0, 0.0, 0.0, 0.0, 0.0)",0.291015625,0.86181640625,0.052734375,"(0.0, 0.0, 0.0, 0.0, 0.0, 0.0, 0.0, 0.0, 0.0)"
2022/11/28/22:55:19.832684,125,1669697719,832124948,RL_myo,0.6454996727309535,0.4152169320715466,-0.46111479079825585,-0.44530688466764723,"(0.0, 0.0, 0.0, 0.0, 0.0, 0.0, 0.0, 0.0, 0.0)",-7.4375,-11.9375,-13.25,"(0.0, 0.0, 0.0, 0.0, 0.0, 0.0, 0.0, 0.0, 0.0)",0.25244140625,0.7431640625,0.08740234375,"(0.0, 0.0, 0.0, 0.0, 0.0, 0.0, 0.0, 0.0, 0.0)"
2022/11/28/22:55:19.855180,126,1669697719,854680299,RL_myo,0.6432385932960523,0.4133230623209855,-0.4633710409245307,-0.4479904426219778,"(0.0, 0.0, 0.0, 0.0, 0.0, 0.0, 0.0, 0.0, 0.0)",-6.125,-23.6875,-10.0625,"(0.0, 0.0, 0.0, 0.0, 0.0, 0.0, 0.0, 0.0, 0.0)",0.24658203125,0.734375,0.126953125,"(0.0, 0.0, 0.0, 0.0, 0.0, 0.0, 0.0, 0.0, 0.0)"
2022/11/28/22:55:19.869196,127,1669697719,868808746,RL_myo,0.6409341464817049,0.41003671993753865,-0.46673873137278327,-0.45080845690066396,"(0.0, 0.0, 0.0, 0.0, 0.0, 0.0, 0.0, 0.0, 0.0)",-9.125,-31.9375,-2.5625,"(0.0, 0.0, 0.0, 0.0, 0.0, 0.0, 0.0, 0.0, 0.0)",0.2236328125,0.744140625,0.12451171875,"(0.0, 0.0, 0.0, 0.0, 0.0, 0.0, 0.0, 0.0, 0.0)"
2022/11/28/22:55:19.892522,128,1669697719,891706228,RL_myo,0.6385054414833596,0.40528401983075313,-0.47327895930235836,-0.45173298656135596,"(0.0, 0.0, 0.0, 0.0, 0.0, 0.0, 0.0, 0.0, 0.0)",-3.0625,-43.0625,14.75,"(0.0, 0.0, 0.0, 0.0, 0.0, 0.0, 0.0, 0.0, 0.0)",0.22412109375,0.6826171875,0.0751953125,"(0.0, 0.0, 0.0, 0.0, 0.0, 0.0, 0.0, 0.0, 0.0)"
2022/11/28/22:55:19.914915,129,1669697719,914470195,RL_myo,0.6361649805686813,0.39825160685125643,-0.4836391927493266,-0.4503142307047617,"(0.0, 0.0, 0.0, 0.0, 0.0, 0.0, 0.0, 0.0, 0.0)",7.5,-56.6875,35.375,"(0.0, 0.0, 0.0, 0.0, 0.0, 0.0, 0.0, 0.0, 0.0)",0.2744140625,0.6201171875,0.0986328125,"(0.0, 0.0, 0.0, 0.0, 0.0, 0.0, 0.0, 0.0, 0.0)"
2022/11/28/22:55:19.928760,130,1669697719,928462505,RL_myo,0.6345054136675751,0.38945546793120395,-0.4979732272137115,-0.4446908853387795,"(0.0, 0.0, 0.0, 0.0, 0.0, 0.0, 0.0, 0.0, 0.0)",25.9375,-64.75,62.75,"(0.0, 0.0, 0.0, 0.0, 0.0, 0.0, 0.0, 0.0, 0.0)",0.322265625,0.53662109375,0.13671875,"(0.0, 0.0, 0.0, 0.0, 0.0, 0.0, 0.0, 0.0, 0.0)"
2022/11/28/22:55:19.953828,131,1669697719,953317165,RL_myo,0.6323862633769592,0.38177551176748187,-0.5161751403705187,-0.43347237163431757,"(0.0, 0.0, 0.0, 0.0, 0.0, 0.0, 0.0, 0.0, 0.0)",58.6875,-65.5,84.0,"(0.0, 0.0, 0.0, 0.0, 0.0, 0.0, 0.0, 0.0, 0.0)",0.3564453125,0.41259765625,0.130859375,"(0.0, 0.0, 0.0, 0.0, 0.0, 0.0, 0.0, 0.0, 0.0)"
2022/11/28/22:55:19.974804,132,1669697719,974449396,RL_myo,0.6268154414398563,0.37914094666254994,-0.5393542410909455,-0.41527285915840145,"(0.0, 0.0, 0.0, 0.0, 0.0, 0.0, 0.0, 0.0, 0.0)",114.5625,-66.625,105.6875,"(0.0, 0.0, 0.0, 0.0, 0.0, 0.0, 0.0, 0.0, 0.0)",0.43505859375,0.3212890625,0.0859375,"(0.0, 0.0, 0.0, 0.0, 0.0, 0.0, 0.0, 0.0, 0.0)"
2022/11/28/22:55:19.988743,133,1669697719,988325119,RL_myo,0.6185678761542118,0.37919706112936535,-0.5669951227896031,-0.38999987455603485,"(0.0, 0.0, 0.0, 0.0, 0.0, 0.0, 0.0, 0.0, 0.0)",163.375,-69.5,124.75,"(0.0, 0.0, 0.0, 0.0, 0.0, 0.0, 0.0, 0.0, 0.0)",0.54150390625,0.283203125,0.09326171875,"(0.0, 0.0, 0.0, 0.0, 0.0, 0.0, 0.0, 0.0, 0.0)"
2022/11/28/22:55:20.012366,134,1669697720,11762142,RL_myo,0.6102485863792312,0.3770869940639018,-0.595050356932499,-0.36237706114557866,"(0.0, 0.0, 0.0, 0.0, 0.0, 0.0, 0.0, 0.0, 0.0)",165.4375,-72.0625,139.6875,"(0.0, 0.0, 0.0, 0.0, 0.0, 0.0, 0.0, 0.0, 0.0)",0.712890625,0.4609375,0.13818359375,"(0.0, 0.0, 0.0, 0.0, 0.0, 0.0, 0.0, 0.0, 0.0)"
2022/11/28/22:55:20.042226,135,1669697720,41857481,RL_myo,0.603801614247485,0.37431671891032303,-0.6217453799999121,-0.3297624706134804,"(0.0, 0.0, 0.0, 0.0, 0.0, 0.0, 0.0, 0.0, 0.0)",173.4375,-52.3125,159.5625,"(0.0, 0.0, 0.0, 0.0, 0.0, 0.0, 0.0, 0.0, 0.0)",0.8193359375,0.43505859375,0.142578125,"(0.0, 0.0, 0.0, 0.0, 0.0, 0.0, 0.0, 0.0, 0.0)"
2022/11/28/22:55:20.055609,136,1669697720,55192470,RL_myo,0.5982116502751029,0.3722572038595911,-0.6461857709889312,-0.29327690843504434,"(0.0, 0.0, 0.0, 0.0, 0.0, 0.0, 0.0, 0.0, 0.0)",184.0,-32.5625,167.125,"(0.0, 0.0, 0.0, 0.0, 0.0, 0.0, 0.0, 0.0, 0.0)",0.8125,0.34130859375,0.1318359375,"(0.0, 0.0, 0.0, 0.0, 0.0, 0.0, 0.0, 0.0, 0.0)"
2022/11/28/22:55:20.072981,137,1669697720,72386264,RL_myo,0.5944199883349944,0.36901768656672923,-0.667173723430519,-0.2556756680496243,"(0.0, 0.0, 0.0, 0.0, 0.0, 0.0, 0.0, 0.0, 0.0)",174.0,-14.3125,173.3125,"(0.0, 0.0, 0.0, 0.0, 0.0, 0.0, 0.0, 0.0, 0.0)",0.7978515625,0.43505859375,0.08740234375,"(0.0, 0.0, 0.0, 0.0, 0.0, 0.0, 0.0, 0.0, 0.0)"
2022/11/28/22:55:20.094582,138,1669697720,94193458,RL_myo,0.5944269205621967,0.35864591695486886,-0.6845156498721672,-0.22241417994954768,"(0.0, 0.0, 0.0, 0.0, 0.0, 0.0, 0.0, 0.0, 0.0)",120.3125,-7.75,184.4375,"(0.0, 0.0, 0.0, 0.0, 0.0, 0.0, 0.0, 0.0, 0.0)",0.95263671875,0.62353515625,0.0732421875,"(0.0, 0.0, 0.0, 0.0, 0.0, 0.0, 0.0, 0.0, 0.0)"
2022/11/28/22:55:20.116077,139,1669697720,115290164,RL_myo,0.5965007385556358,0.3467431388247792,-0.6992236223159075,-0.18719612863502866,"(0.0, 0.0, 0.0, 0.0, 0.0, 0.0, 0.0, 0.0, 0.0)",114.25,12.1875,195.5625,"(0.0, 0.0, 0.0, 0.0, 0.0, 0.0, 0.0, 0.0, 0.0)",0.94580078125,0.58837890625,-0.02490234375,"(0.0, 0.0, 0.0, 0.0, 0.0, 0.0, 0.0, 0.0, 0.0)"
2022/11/28/22:55:20.132522,140,1669697720,131983757,RL_myo,0.5979653652952316,0.3378318155465047,-0.7108201127108571,-0.1517954336520609,"(0.0, 0.0, 0.0, 0.0, 0.0, 0.0, 0.0, 0.0, 0.0)",123.5625,23.5,179.5,"(0.0, 0.0, 0.0, 0.0, 0.0, 0.0, 0.0, 0.0, 0.0)",0.85595703125,0.55908203125,0.0126953125,"(0.0, 0.0, 0.0, 0.0, 0.0, 0.0, 0.0, 0.0, 0.0)"
2022/11/28/22:55:20.154809,141,1669697720,154307126,RL_myo,0.5980845945178563,0.3331304946299071,-0.7197889195988447,-0.11499044556298003,"(0.0, 0.0, 0.0, 0.0, 0.0, 0.0, 0.0, 0.0, 0.0)",144.1875,32.875,162.5625,"(0.0, 0.0, 0.0, 0.0, 0.0, 0.0, 0.0, 0.0, 0.0)",0.888671875,0.62744140625,0.00390625,"(0.0, 0.0, 0.0, 0.0, 0.0, 0.0, 0.0, 0.0, 0.0)"
2022/11/28/22:55:20.175889,142,1669697720,175055503,RL_myo,0.5998661897221057,0.3253242563307716,-0.7262116326122928,-0.08331474857251468,"(0.0, 0.0, 0.0, 0.0, 0.0, 0.0, 0.0, 0.0, 0.0)",108.0,36.4375,155.0625,"(0.0, 0.0, 0.0, 0.0, 0.0, 0.0, 0.0, 0.0, 0.0)",1.20849609375,0.81396484375,-0.09130859375,"(0.0, 0.0, 0.0, 0.0, 0.0, 0.0, 0.0, 0.0, 0.0)"
2022/11/28/22:55:20.192447,143,1669697720,191970109,RL_myo,0.6064454525695085,0.31262214251821885,-0.7290040746266314,-0.055175793993844174,"(0.0, 0.0, 0.0, 0.0, 0.0, 0.0, 0.0, 0.0, 0.0)",64.4375,62.125,160.3125,"(0.0, 0.0, 0.0, 0.0, 0.0, 0.0, 0.0, 0.0, 0.0)",1.26123046875,0.84130859375,-0.2412109375,"(0.0, 0.0, 0.0, 0.0, 0.0, 0.0, 0.0, 0.0, 0.0)"
2022/11/28/22:55:20.214538,144,1669697720,214134693,RL_myo,0.6136551318044389,0.3038368058606024,-0.7282805880933524,-0.02679476853611982,"(0.0, 0.0, 0.0, 0.0, 0.0, 0.0, 0.0, 0.0, 0.0)",76.125,80.0,139.75,"(0.0, 0.0, 0.0, 0.0, 0.0, 0.0, 0.0, 0.0, 0.0)",1.1064453125,0.75048828125,-0.26904296875,"(0.0, 0.0, 0.0, 0.0, 0.0, 0.0, 0.0, 0.0, 0.0)"
2022/11/28/22:55:20.235533,145,1669697720,235082864,RL_myo,0.6193801220587526,0.29968037044821394,-0.725641532435604,0.002075179754631217,"(0.0, 0.0, 0.0, 0.0, 0.0, 0.0, 0.0, 0.0, 0.0)",96.8125,81.875,118.125,"(0.0, 0.0, 0.0, 0.0, 0.0, 0.0, 0.0, 0.0, 0.0)",1.119140625,0.65283203125,-0.2177734375,"(0.0, 0.0, 0.0, 0.0, 0.0, 0.0, 0.0, 0.0, 0.0)"
2022/11/28/22:55:20.252693,146,1669697720,252202749,RL_myo,0.6248215894024097,0.29663308825785983,-0.7216240745828554,0.029419166366314496,"(0.0, 0.0, 0.0, 0.0, 0.0, 0.0, 0.0, 0.0, 0.0)",94.5625,83.375,105.75,"(0.0, 0.0, 0.0, 0.0, 0.0, 0.0, 0.0, 0.0, 0.0)",1.23583984375,0.6318359375,-0.2861328125,"(0.0, 0.0, 0.0, 0.0, 0.0, 0.0, 0.0, 0.0, 0.0)"
2022/11/28/22:55:20.274549,147,1669697720,274138689,RL_myo,0.6323992491115222,0.2934024891882142,-0.7152257891215923,0.0493785341695996,"(0.0, 0.0, 0.0, 0.0, 0.0, 0.0, 0.0, 0.0, 0.0)",60.8125,96.0,91.875,"(0.0, 0.0, 0.0, 0.0, 0.0, 0.0, 0.0, 0.0, 0.0)",1.33203125,0.71533203125,-0.38818359375,"(0.0, 0.0, 0.0, 0.0, 0.0, 0.0, 0.0, 0.0, 0.0)"
2022/11/28/22:55:20.296256,148,1669697720,295318603,RL_myo,0.6423448483283549,0.28882324423125955,-0.706432846308664,0.0701916168355766,"(0.0, 0.0, 0.0, 0.0, 0.0, 0.0, 0.0, 0.0, 0.0)",54.3125,112.875,82.75,"(0.0, 0.0, 0.0, 0.0, 0.0, 0.0, 0.0, 0.0, 0.0)",1.1708984375,0.712890625,-0.45751953125,"(0.0, 0.0, 0.0, 0.0, 0.0, 0.0, 0.0, 0.0, 0.0)"
2022/11/28/22:55:20.312226,149,1669697720,311770200,RL_myo,0.6520598317258104,0.2851045094066517,-0.6969221341051486,0.08850386183678977,"(0.0, 0.0, 0.0, 0.0, 0.0, 0.0, 0.0, 0.0, 0.0)",48.1875,110.375,69.25,"(0.0, 0.0, 0.0, 0.0, 0.0, 0.0, 0.0, 0.0, 0.0)",1.03076171875,0.65625,-0.39111328125,"(0.0, 0.0, 0.0, 0.0, 0.0, 0.0, 0.0, 0.0, 0.0)"
2022/11/28/22:55:20.335174,150,1669697720,334527254,RL_myo,0.6590005627745388,0.2845476172691396,-0.6888469344700792,0.1011969003501144,"(0.0, 0.0, 0.0, 0.0, 0.0, 0.0, 0.0, 0.0, 0.0)",40.9375,93.625,59.6875,"(0.0, 0.0, 0.0, 0.0, 0.0, 0.0, 0.0, 0.0, 0.0)",0.921875,0.6171875,-0.32568359375,"(0.0, 0.0, 0.0, 0.0, 0.0, 0.0, 0.0, 0.0, 0.0)"
2022/11/28/22:55:20.355929,151,1669697720,355336904,RL_myo,0.6644803669365434,0.2832601619318911,-0.6829737582456068,0.10851897606440473,"(0.0, 0.0, 0.0, 0.0, 0.0, 0.0, 0.0, 0.0, 0.0)",18.6875,69.4375,50.6875,"(0.0, 0.0, 0.0, 0.0, 0.0, 0.0, 0.0, 0.0, 0.0)",0.92333984375,0.6640625,-0.28125,"(0.0, 0.0, 0.0, 0.0, 0.0, 0.0, 0.0, 0.0, 0.0)"
2022/11/28/22:55:20.372486,152,1669697720,372182130,RL_myo,0.6723546087264325,0.2786218944114165,-0.6769932207692074,0.10949565795708241,"(0.0, 0.0, 0.0, 0.0, 0.0, 0.0, 0.0, 0.0, 0.0)",-18.5,52.8125,41.375,"(0.0, 0.0, 0.0, 0.0, 0.0, 0.0, 0.0, 0.0, 0.0)",1.02734375,0.7392578125,0.00244140625,"(0.0, 0.0, 0.0, 0.0, 0.0, 0.0, 0.0, 0.0, 0.0)"
2022/11/28/22:55:20.394503,153,1669697720,394180059,RL_myo,0.6688305612673002,0.28973705734037913,-0.6733472122559643,0.12378065141906233,"(0.0, 0.0, 0.0, 0.0, 0.0, 0.0, 0.0, 0.0, 0.0)",99.9375,43.9375,16.125,"(0.0, 0.0, 0.0, 0.0, 0.0, 0.0, 0.0, 0.0, 0.0)",0.99853515625,0.33154296875,-0.4833984375,"(0.0, 0.0, 0.0, 0.0, 0.0, 0.0, 0.0, 0.0, 0.0)"
2022/11/28/22:55:20.415955,154,1669697720,415107250,RL_myo,0.662548503045342,0.30975897309581857,-0.6660886055950085,0.14630389330259647,"(0.0, 0.0, 0.0, 0.0, 0.0, 0.0, 0.0, 0.0, 0.0)",177.5,36.3125,3.4375,"(0.0, 0.0, 0.0, 0.0, 0.0, 0.0, 0.0, 0.0, 0.0)",0.98876953125,0.32470703125,-0.64404296875,"(0.0, 0.0, 0.0, 0.0, 0.0, 0.0, 0.0, 0.0, 0.0)"
2022/11/28/22:55:20.432350,155,1669697720,431819200,RL_myo,0.654367158884353,0.3261154491110063,-0.6632784176472591,0.15973126152414438,"(0.0, 0.0, 0.0, 0.0, 0.0, 0.0, 0.0, 0.0, 0.0)",128.25,1.5625,-2.125,"(0.0, 0.0, 0.0, 0.0, 0.0, 0.0, 0.0, 0.0, 0.0)",0.94287109375,0.62158203125,-0.82080078125,"(0.0, 0.0, 0.0, 0.0, 0.0, 0.0, 0.0, 0.0, 0.0)"
2022/11/28/22:55:20.455112,156,1669697720,454682350,RL_myo,0.6519335871969725,0.32868292922532505,-0.6653616734420182,0.1557047636868717,"(0.0, 0.0, 0.0, 0.0, 0.0, 0.0, 0.0, 0.0, 0.0)",-7.5,0.3125,-2.125,"(0.0, 0.0, 0.0, 0.0, 0.0, 0.0, 0.0, 0.0, 0.0)",1.025390625,0.4765625,-0.50537109375,"(0.0, 0.0, 0.0, 0.0, 0.0, 0.0, 0.0, 0.0, 0.0)"
2022/11/28/22:55:20.476064,157,1669697720,475326061,RL_myo,0.6548158028850071,0.3230742025233354,-0.6662909493188607,0.15131323409320774,"(0.0, 0.0, 0.0, 0.0, 0.0, 0.0, 0.0, 0.0, 0.0)",-46.0,11.4375,0.4375,"(0.0, 0.0, 0.0, 0.0, 0.0, 0.0, 0.0, 0.0, 0.0)",1.044921875,0.18798828125,-0.20947265625,"(0.0, 0.0, 0.0, 0.0, 0.0, 0.0, 0.0, 0.0, 0.0)"
2022/11/28/22:55:20.492045,158,1669697720,491576433,RL_myo,0.6584622767039872,0.31531480547393376,-0.6676787954083162,0.14563320283794154,"(0.0, 0.0, 0.0, 0.0, 0.0, 0.0, 0.0, 0.0, 0.0)",-58.6875,-1.25,-4.5625,"(0.0, 0.0, 0.0, 0.0, 0.0, 0.0, 0.0, 0.0, 0.0)",0.96630859375,0.03955078125,-0.00341796875,"(0.0, 0.0, 0.0, 0.0, 0.0, 0.0, 0.0, 0.0, 0.0)"
2022/11/28/22:55:20.515212,159,1669697720,514453649,RL_myo,0.6610424202789504,0.30982930058503716,-0.6687942566017046,0.14050966311007793,"(0.0, 0.0, 0.0, 0.0, 0.0, 0.0, 0.0, 0.0, 0.0)",-44.6875,-7.5625,-7.4375,"(0.0, 0.0, 0.0, 0.0, 0.0, 0.0, 0.0, 0.0, 0.0)",0.931640625,0.08154296875,0.0400390625,"(0.0, 0.0, 0.0, 0.0, 0.0, 0.0, 0.0, 0.0, 0.0)"
2022/11/28/22:55:20.535756,160,1669697720,535269260,RL_myo,0.6629911668309628,0.3064091012236635,-0.6689118207789101,0.1382503215680474,"(0.0, 0.0, 0.0, 0.0, 0.0, 0.0, 0.0, 0.0, 0.0)",-25.0,3.1875,-0.6875,"(0.0, 0.0, 0.0, 0.0, 0.0, 0.0, 0.0, 0.0, 0.0)",0.890625,0.14404296875,-0.03857421875,"(0.0, 0.0, 0.0, 0.0, 0.0, 0.0, 0.0, 0.0, 0.0)"
2022/11/28/22:55:20.552588,161,1669697720,551990509,RL_myo,0.664815521570932,0.30133990359857615,-0.6703088558475923,0.1337932081604373,"(0.0, 0.0, 0.0, 0.0, 0.0, 0.0, 0.0, 0.0, 0.0)",-40.0,-5.4375,3.625,"(0.0, 0.0, 0.0, 0.0, 0.0, 0.0, 0.0, 0.0, 0.0)",0.87890625,0.20263671875,-0.0234375,"(0.0, 0.0, 0.0, 0.0, 0.0, 0.0, 0.0, 0.0, 0.0)"
2022/11/28/22:55:20.574936,162,1669697720,574545860,RL_myo,0.6673558613830729,0.29321177593600534,-0.6727269347141238,0.12689160744607725,"(0.0, 0.0, 0.0, 0.0, 0.0, 0.0, 0.0, 0.0, 0.0)",-62.1875,-11.625,6.4375,"(0.0, 0.0, 0.0, 0.0, 0.0, 0.0, 0.0, 0.0, 0.0)",0.92578125,0.1982421875,0.0205078125,"(0.0, 0.0, 0.0, 0.0, 0.0, 0.0, 0.0, 0.0, 0.0)"
2022/11/28/22:55:20.595641,163,1669697720,595016241,RL_myo,0.6699386900982675,0.28455304056469777,-0.6748216251572927,0.12176819303444274,"(0.0, 0.0, 0.0, 0.0, 0.0, 0.0, 0.0, 0.0, 0.0)",-57.3125,-8.625,9.0625,"(0.0, 0.0, 0.0, 0.0, 0.0, 0.0, 0.0, 0.0, 0.0)",0.97607421875,0.1220703125,0.0458984375,"(0.0, 0.0, 0.0, 0.0, 0.0, 0.0, 0.0, 0.0, 0.0)"
2022/11/28/22:55:20.612379,164,1669697720,611937761,RL_myo,0.6716796113362044,0.27770488246976194,-0.6763792324241542,0.11932154840184277,"(0.0, 0.0, 0.0, 0.0, 0.0, 0.0, 0.0, 0.0, 0.0)",-38.1875,-8.1875,9.5,"(0.0, 0.0, 0.0, 0.0, 0.0, 0.0, 0.0, 0.0, 0.0)",1.01513671875,0.09326171875,0.0673828125,"(0.0, 0.0, 0.0, 0.0, 0.0, 0.0, 0.0, 0.0, 0.0)"
2022/11/28/22:55:20.634786,165,1669697720,634430646,RL_myo,0.6723753507051838,0.2735034446722884,-0.677441359611187,0.11908172741701287,"(0.0, 0.0, 0.0, 0.0, 0.0, 0.0, 0.0, 0.0, 0.0)",-18.0,-7.25,8.0,"(0.0, 0.0, 0.0, 0.0, 0.0, 0.0, 0.0, 0.0, 0.0)",1.0166015625,0.08837890625,0.048828125,"(0.0, 0.0, 0.0, 0.0, 0.0, 0.0, 0.0, 0.0, 0.0)"
2022/11/28/22:55:20.655601,166,1669697720,655165433,RL_myo,0.6726819904730975,0.27136776423585807,-0.6779311195158964,0.11944820391578367,"(0.0, 0.0, 0.0, 0.0, 0.0, 0.0, 0.0, 0.0, 0.0)",-6.5625,-5.3125,4.125,"(0.0, 0.0, 0.0, 0.0, 0.0, 0.0, 0.0, 0.0, 0.0)",1.00634765625,0.12109375,0.0263671875,"(0.0, 0.0, 0.0, 0.0, 0.0, 0.0, 0.0, 0.0, 0.0)"
2022/11/28/22:55:20.671521,167,1669697720,671221494,RL_myo,0.6730999884439337,0.2703264280756422,-0.6779217964859242,0.11950759678756095,"(0.0, 0.0, 0.0, 0.0, 0.0, 0.0, 0.0, 0.0, 0.0)",-3.8125,-2.4375,-0.625,"(0.0, 0.0, 0.0, 0.0, 0.0, 0.0, 0.0, 0.0, 0.0)",0.98876953125,0.13671875,0.0048828125,"(0.0, 0.0, 0.0, 0.0, 0.0, 0.0, 0.0, 0.0, 0.0)"
2022/11/28/22:55:20.694617,168,1669697720,694235324,RL_myo,0.6735875551314338,0.2711806367750054,-0.6769445065207259,0.12036196617607714,"(0.0, 0.0, 0.0, 0.0, 0.0, 0.0, 0.0, 0.0, 0.0)",6.9375,3.3125,-4.3125,"(0.0, 0.0, 0.0, 0.0, 0.0, 0.0, 0.0, 0.0, 0.0)",0.99169921875,0.171875,-0.02197265625,"(0.0, 0.0, 0.0, 0.0, 0.0, 0.0, 0.0, 0.0, 0.0)"
2022/11/28/22:55:20.716139,169,1669697720,715473413,RL_myo,0.674091644734136,0.2733843242271093,-0.675434456775439,0.12103619445018034,"(0.0, 0.0, 0.0, 0.0, 0.0, 0.0, 0.0, 0.0, 0.0)",11.6875,6.9375,-7.9375,"(0.0, 0.0, 0.0, 0.0, 0.0, 0.0, 0.0, 0.0, 0.0)",0.9990234375,0.22021484375,-0.0576171875,"(0.0, 0.0, 0.0, 0.0, 0.0, 0.0, 0.0, 0.0, 0.0)"
2022/11/28/22:55:20.732377,170,1669697720,731827020,RL_myo,0.6748033425978254,0.2755731812435946,-0.6738878170787437,0.12072729844957478,"(0.0, 0.0, 0.0, 0.0, 0.0, 0.0, 0.0, 0.0, 0.0)",6.875,7.9375,-11.0625,"(0.0, 0.0, 0.0, 0.0, 0.0, 0.0, 0.0, 0.0, 0.0)",0.9716796875,0.232421875,-0.0771484375,"(0.0, 0.0, 0.0, 0.0, 0.0, 0.0, 0.0, 0.0, 0.0)"
2022/11/28/22:55:20.754849,171,1669697720,754459142,RL_myo,0.6757271311051919,0.2772245171601284,-0.6723701631519099,0.12024048850846608,"(0.0, 0.0, 0.0, 0.0, 0.0, 0.0, 0.0, 0.0, 0.0)",3.75,8.9375,-11.0,"(0.0, 0.0, 0.0, 0.0, 0.0, 0.0, 0.0, 0.0, 0.0)",0.97412109375,0.21435546875,-0.07470703125,"(0.0, 0.0, 0.0, 0.0, 0.0, 0.0, 0.0, 0.0, 0.0)"
2022/11/28/22:55:20.775568,172,1669697720,775060653,RL_myo,0.6765059878861797,0.27880542698160127,-0.6710739206792263,0.11944444408997235,"(0.0, 0.0, 0.0, 0.0, 0.0, 0.0, 0.0, 0.0, 0.0)",2.25,7.5625,-12.0625,"(0.0, 0.0, 0.0, 0.0, 0.0, 0.0, 0.0, 0.0, 0.0)",0.97802734375,0.2138671875,-0.08740234375,"(0.0, 0.0, 0.0, 0.0, 0.0, 0.0, 0.0, 0.0, 0.0)"
2022/11/28/22:55:20.793353,173,1669697720,792189598,RL_myo,0.6773699720808593,0.2794807264514556,-0.6703509103770118,0.11700470683717852,"(0.0, 0.0, 0.0, 0.0, 0.0, 0.0, 0.0, 0.0, 0.0)",-8.625,5.6875,-13.6875,"(0.0, 0.0, 0.0, 0.0, 0.0, 0.0, 0.0, 0.0, 0.0)",0.9833984375,0.22998046875,-0.11767578125,"(0.0, 0.0, 0.0, 0.0, 0.0, 0.0, 0.0, 0.0, 0.0)"
2022/11/28/22:55:20.821155,174,1669697720,820298433,RL_myo,0.6788500642842724,0.27838834231258464,-0.6701218176386465,0.11224647259654531,"(0.0, 0.0, 0.0, 0.0, 0.0, 0.0, 0.0, 0.0, 0.0)",-26.1875,6.0625,-13.9375,"(0.0, 0.0, 0.0, 0.0, 0.0, 0.0, 0.0, 0.0, 0.0)",0.98095703125,0.25439453125,-0.14501953125,"(0.0, 0.0, 0.0, 0.0, 0.0, 0.0, 0.0, 0.0, 0.0)"
2022/11/28/22:55:20.837574,175,1669697720,836890220,RL_myo,0.6812133040435934,0.27484127838977696,-0.6705931880232022,0.10351561362404214,"(0.0, 0.0, 0.0, 0.0, 0.0, 0.0, 0.0, 0.0, 0.0)",-53.3125,4.9375,-15.9375,"(0.0, 0.0, 0.0, 0.0, 0.0, 0.0, 0.0, 0.0, 0.0)",0.9716796875,0.31396484375,-0.18408203125,"(0.0, 0.0, 0.0, 0.0, 0.0, 0.0, 0.0, 0.0, 0.0)"
2022/11/28/22:55:20.851702,176,1669697720,851269721,RL_myo,0.6849897361396017,0.2678802416391973,-0.6716231895643034,0.08917134496123658,"(0.0, 0.0, 0.0, 0.0, 0.0, 0.0, 0.0, 0.0, 0.0)",-91.3125,3.625,-22.0625,"(0.0, 0.0, 0.0, 0.0, 0.0, 0.0, 0.0, 0.0, 0.0)",0.986328125,0.36474609375,-0.2177734375,"(0.0, 0.0, 0.0, 0.0, 0.0, 0.0, 0.0, 0.0, 0.0)"
2022/11/28/22:55:20.874757,177,1669697720,874351978,RL_myo,0.6917792270900421,0.25628912780581325,-0.6715153570182323,0.0694586871738546,"(0.0, 0.0, 0.0, 0.0, 0.0, 0.0, 0.0, 0.0, 0.0)",-132.6875,5.375,-33.9375,"(0.0, 0.0, 0.0, 0.0, 0.0, 0.0, 0.0, 0.0, 0.0)",1.01123046875,0.443359375,-0.216796875,"(0.0, 0.0, 0.0, 0.0, 0.0, 0.0, 0.0, 0.0, 0.0)"
2022/11/28/22:55:20.897353,178,1669697720,896876335,RL_myo,0.700762268566508,0.24127804613216672,-0.6699387387671798,0.043580198567762976,"(0.0, 0.0, 0.0, 0.0, 0.0, 0.0, 0.0, 0.0, 0.0)",-172.25,12.0,-47.6875,"(0.0, 0.0, 0.0, 0.0, 0.0, 0.0, 0.0, 0.0, 0.0)",1.05810546875,0.49755859375,-0.2001953125,"(0.0, 0.0, 0.0, 0.0, 0.0, 0.0, 0.0, 0.0, 0.0)"
2022/11/28/22:55:20.911416,179,1669697720,911104440,RL_myo,0.7108760967412895,0.2241820128213923,-0.6665035611243136,0.013061516674047905,"(0.0, 0.0, 0.0, 0.0, 0.0, 0.0, 0.0, 0.0, 0.0)",-200.25,17.6875,-62.25,"(0.0, 0.0, 0.0, 0.0, 0.0, 0.0, 0.0, 0.0, 0.0)",1.078125,0.47509765625,-0.17724609375,"(0.0, 0.0, 0.0, 0.0, 0.0, 0.0, 0.0, 0.0, 0.0)"
2022/11/28/22:55:20.935363,180,1669697720,934596300,RL_myo,0.7208111718307196,0.20879720735248875,-0.660631678568646,-0.020019141774807455,"(0.0, 0.0, 0.0, 0.0, 0.0, 0.0, 0.0, 0.0, 0.0)",-202.75,23.875,-82.375,"(0.0, 0.0, 0.0, 0.0, 0.0, 0.0, 0.0, 0.0, 0.0)",1.103515625,0.501953125,-0.15087890625,"(0.0, 0.0, 0.0, 0.0, 0.0, 0.0, 0.0, 0.0, 0.0)"
2022/11/28/22:55:20.957509,181,1669697720,956872940,RL_myo,0.7303028864755448,0.19861308755465296,-0.6513825661903062,-0.053956351997023116,"(0.0, 0.0, 0.0, 0.0, 0.0, 0.0, 0.0, 0.0, 0.0)",-183.9375,35.125,-111.5625,"(0.0, 0.0, 0.0, 0.0, 0.0, 0.0, 0.0, 0.0, 0.0)",1.1689453125,0.45751953125,-0.08349609375,"(0.0, 0.0, 0.0, 0.0, 0.0, 0.0, 0.0, 0.0, 0.0)"
2022/11/28/22:55:20.971360,182,1669697720,970948696,RL_myo,0.7395257741681945,0.19428116038109633,-0.6382651882202716,-0.08929730997095317,"(0.0, 0.0, 0.0, 0.0, 0.0, 0.0, 0.0, 0.0, 0.0)",-165.4375,49.6875,-144.375,"(0.0, 0.0, 0.0, 0.0, 0.0, 0.0, 0.0, 0.0, 0.0)",1.20263671875,0.50634765625,0.02734375,"(0.0, 0.0, 0.0, 0.0, 0.0, 0.0, 0.0, 0.0, 0.0)"
2022/11/28/22:55:20.995841,183,1669697720,994698286,RL_myo,0.748356709286397,0.19629028440298937,-0.6212807229284916,-0.1242683516929373,"(0.0, 0.0, 0.0, 0.0, 0.0, 0.0, 0.0, 0.0, 0.0)",-138.1875,67.25,-171.125,"(0.0, 0.0, 0.0, 0.0, 0.0, 0.0, 0.0, 0.0, 0.0)",1.208984375,0.56396484375,0.1533203125,"(0.0, 0.0, 0.0, 0.0, 0.0, 0.0, 0.0, 0.0, 0.0)"
2022/11/28/22:55:21.018577,184,1669697721,18004894,RL_myo,0.7561715875767722,0.20501899771332455,-0.6007746336684291,-0.1588759901898731,"(0.0, 0.0, 0.0, 0.0, 0.0, 0.0, 0.0, 0.0, 0.0)",-109.625,83.4375,-197.0,"(0.0, 0.0, 0.0, 0.0, 0.0, 0.0, 0.0, 0.0, 0.0)",1.13037109375,0.67431640625,0.232421875,"(0.0, 0.0, 0.0, 0.0, 0.0, 0.0, 0.0, 0.0, 0.0)"
2022/11/28/22:55:21.038386,185,1669697721,37852764,RL_myo,0.762764941884441,0.21832521382096867,-0.5767887253587235,-0.1945212346791801,"(0.0, 0.0, 0.0, 0.0, 0.0, 0.0, 0.0, 0.0, 0.0)",-94.8125,96.125,-221.25,"(0.0, 0.0, 0.0, 0.0, 0.0, 0.0, 0.0, 0.0, 0.0)",1.0166015625,0.81689453125,0.353515625,"(0.0, 0.0, 0.0, 0.0, 0.0, 0.0, 0.0, 0.0, 0.0)"
2022/11/28/22:55:21.055924,186,1669697721,55249214,RL_myo,0.7680610814812856,0.2351057919473865,-0.5501060495383683,-0.22845300603817958,"(0.0, 0.0, 0.0, 0.0, 0.0, 0.0, 0.0, 0.0, 0.0)",-74.5,109.5,-231.8125,"(0.0, 0.0, 0.0, 0.0, 0.0, 0.0, 0.0, 0.0, 0.0)",0.97705078125,0.79296875,0.44482421875,"(0.0, 0.0, 0.0, 0.0, 0.0, 0.0, 0.0, 0.0, 0.0)"
2022/11/28/22:55:21.078065,187,1669697721,76719284,RL_myo,0.771493208400722,0.25653369896425904,-0.5214903459316272,-0.25891409731296383,"(0.0, 0.0, 0.0, 0.0, 0.0, 0.0, 0.0, 0.0, 0.0)",-42.375,123.5,-238.3125,"(0.0, 0.0, 0.0, 0.0, 0.0, 0.0, 0.0, 0.0, 0.0)",0.91064453125,0.693359375,0.4736328125,"(0.0, 0.0, 0.0, 0.0, 0.0, 0.0, 0.0, 0.0, 0.0)"
2022/11/28/22:55:21.098461,188,1669697721,97839593,RL_myo,0.7727799116342683,0.2792408258215605,-0.49134178095378406,-0.2888235164563113,"(0.0, 0.0, 0.0, 0.0, 0.0, 0.0, 0.0, 0.0, 0.0)",-33.6875,126.625,-245.125,"(0.0, 0.0, 0.0, 0.0, 0.0, 0.0, 0.0, 0.0, 0.0)",0.7587890625,0.6826171875,0.50146484375,"(0.0, 0.0, 0.0, 0.0, 0.0, 0.0, 0.0, 0.0, 0.0)"
2022/11/28/22:55:21.115125,189,1669697721,114431858,RL_myo,0.7711301963926349,0.30426500150524655,-0.46161608954547234,-0.3157397899271094,"(0.0, 0.0, 0.0, 0.0, 0.0, 0.0, 0.0, 0.0, 0.0)",-8.75,124.5,-243.0,"(0.0, 0.0, 0.0, 0.0, 0.0, 0.0, 0.0, 0.0, 0.0)",0.64013671875,0.64453125,0.552734375,"(0.0, 0.0, 0.0, 0.0, 0.0, 0.0, 0.0, 0.0, 0.0)"
2022/11/28/22:55:21.137578,190,1669697721,137256860,RL_myo,0.7665320164114552,0.3323937703142595,-0.4337110047471774,-0.3373985975573313,"(0.0, 0.0, 0.0, 0.0, 0.0, 0.0, 0.0, 0.0, 0.0)",29.1875,123.5625,-231.5625,"(0.0, 0.0, 0.0, 0.0, 0.0, 0.0, 0.0, 0.0, 0.0)",0.58203125,0.52490234375,0.6103515625,"(0.0, 0.0, 0.0, 0.0, 0.0, 0.0, 0.0, 0.0, 0.0)"
2022/11/28/22:55:21.157947,191,1669697721,157574415,RL_myo,0.7599135630889541,0.36195079751947773,-0.4068742017310014,-0.3549315156114271,"(0.0, 0.0, 0.0, 0.0, 0.0, 0.0, 0.0, 0.0, 0.0)",52.5,124.8125,-218.9375,"(0.0, 0.0, 0.0, 0.0, 0.0, 0.0, 0.0, 0.0, 0.0)",0.50390625,0.4912109375,0.6201171875,"(0.0, 0.0, 0.0, 0.0, 0.0, 0.0, 0.0, 0.0, 0.0)"
2022/11/28/22:55:21.174498,192,1669697721,174199581,RL_myo,0.7527066756949027,0.3896593754164984,-0.3805648818486635,-0.36982239280209334,"(0.0, 0.0, 0.0, 0.0, 0.0, 0.0, 0.0, 0.0, 0.0)",50.8125,123.0625,-201.5,"(0.0, 0.0, 0.0, 0.0, 0.0, 0.0, 0.0, 0.0, 0.0)",0.3388671875,0.51806640625,0.478515625,"(0.0, 0.0, 0.0, 0.0, 0.0, 0.0, 0.0, 0.0, 0.0)"
2022/11/28/22:55:21.198121,193,1669697721,197137355,RL_myo,0.7457504576553976,0.4145635217216779,-0.35627315610857385,-0.3808710800269832,"(0.0, 0.0, 0.0, 0.0, 0.0, 0.0, 0.0, 0.0, 0.0)",50.4375,117.6875,-172.3125,"(0.0, 0.0, 0.0, 0.0, 0.0, 0.0, 0.0, 0.0, 0.0)",0.19287109375,0.5107421875,0.4296875,"(0.0, 0.0, 0.0, 0.0, 0.0, 0.0, 0.0, 0.0, 0.0)"
2022/11/28/22:55:21.218415,194,1669697721,217738151,RL_myo,0.7381080667706625,0.4381772770484236,-0.33612512393169924,-0.38757845232727256,"(0.0, 0.0, 0.0, 0.0, 0.0, 0.0, 0.0, 0.0, 0.0)",64.9375,106.0625,-142.9375,"(0.0, 0.0, 0.0, 0.0, 0.0, 0.0, 0.0, 0.0, 0.0)",0.17236328125,0.4111328125,0.390625,"(0.0, 0.0, 0.0, 0.0, 0.0, 0.0, 0.0, 0.0, 0.0)"
2022/11/28/22:55:21.234193,195,1669697721,233886241,RL_myo,0.7308240967546347,0.4592216889913038,-0.3191480876841477,-0.39135160417493886,"(0.0, 0.0, 0.0, 0.0, 0.0, 0.0, 0.0, 0.0, 0.0)",67.1875,95.5,-118.375,"(0.0, 0.0, 0.0, 0.0, 0.0, 0.0, 0.0, 0.0, 0.0)",0.23046875,0.40625,0.4912109375,"(0.0, 0.0, 0.0, 0.0, 0.0, 0.0, 0.0, 0.0, 0.0)"
2022/11/28/22:55:21.257353,196,1669697721,256864070,RL_myo,0.7256193910158436,0.4751195608737657,-0.30665476282499987,-0.39204688328522574,"(0.0, 0.0, 0.0, 0.0, 0.0, 0.0, 0.0, 0.0, 0.0)",71.375,79.6875,-89.5625,"(0.0, 0.0, 0.0, 0.0, 0.0, 0.0, 0.0, 0.0, 0.0)",0.2275390625,0.4130859375,0.47412109375,"(0.0, 0.0, 0.0, 0.0, 0.0, 0.0, 0.0, 0.0, 0.0)"
2022/11/28/22:55:21.278239,197,1669697721,277700424,RL_myo,0.7211968118452411,0.4891394084400611,-0.2979758662346367,-0.38965135805856627,"(0.0, 0.0, 0.0, 0.0, 0.0, 0.0, 0.0, 0.0, 0.0)",70.3125,68.0,-55.8125,"(0.0, 0.0, 0.0, 0.0, 0.0, 0.0, 0.0, 0.0, 0.0)",0.13525390625,0.45361328125,0.40185546875,"(0.0, 0.0, 0.0, 0.0, 0.0, 0.0, 0.0, 0.0, 0.0)"
2022/11/28/22:55:21.294397,198,1669697721,294085979,RL_myo,0.7178469050644376,0.5011683477156788,-0.2923634618874803,-0.3847722888807257,"(0.0, 0.0, 0.0, 0.0, 0.0, 0.0, 0.0, 0.0, 0.0)",63.6875,59.125,-27.9375,"(0.0, 0.0, 0.0, 0.0, 0.0, 0.0, 0.0, 0.0, 0.0)",0.087890625,0.6259765625,0.349609375,"(0.0, 0.0, 0.0, 0.0, 0.0, 0.0, 0.0, 0.0, 0.0)"
2022/11/28/22:55:21.317676,199,1669697721,316907167,RL_myo,0.7174775792028069,0.5089787777943179,-0.2882727866078143,-0.3782397752717817,"(0.0, 0.0, 0.0, 0.0, 0.0, 0.0, 0.0, 0.0, 0.0)",40.625,53.75,-3.75,"(0.0, 0.0, 0.0, 0.0, 0.0, 0.0, 0.0, 0.0, 0.0)",0.09228515625,0.6591796875,0.306640625,"(0.0, 0.0, 0.0, 0.0, 0.0, 0.0, 0.0, 0.0, 0.0)"
2022/11/28/22:55:21.338631,200,1669697721,337956666,RL_myo,0.7207872487173348,0.5117961792272718,-0.28522642164925954,-0.3703731920752636,"(0.0, 0.0, 0.0, 0.0, 0.0, 0.0, 0.0, 0.0, 0.0)",12.8125,48.5,21.25,"(0.0, 0.0, 0.0, 0.0, 0.0, 0.0, 0.0, 0.0, 0.0)",0.095703125,0.68212890625,0.29248046875,"(0.0, 0.0, 0.0, 0.0, 0.0, 0.0, 0.0, 0.0, 0.0)"
2022/11/28/22:55:21.354622,201,1669697721,354173898,RL_myo,0.7258357064160725,0.5108682191979925,-0.283510499184549,-0.3630399244671039,"(0.0, 0.0, 0.0, 0.0, 0.0, 0.0, 0.0, 0.0, 0.0)",-3.875,35.0,36.1875,"(0.0, 0.0, 0.0, 0.0, 0.0, 0.0, 0.0, 0.0, 0.0)",0.0439453125,0.673828125,0.3212890625,"(0.0, 0.0, 0.0, 0.0, 0.0, 0.0, 0.0, 0.0, 0.0)"
2022/11/28/22:55:21.377020,202,1669697721,376644849,RL_myo,0.7284039122518176,0.5107494501192567,-0.28326818809792903,-0.35822042575883334,"(0.0, 0.0, 0.0, 0.0, 0.0, 0.0, 0.0, 0.0, 0.0)",5.125,17.75,27.5,"(0.0, 0.0, 0.0, 0.0, 0.0, 0.0, 0.0, 0.0, 0.0)",-0.0029296875,0.71923828125,0.3291015625,"(0.0, 0.0, 0.0, 0.0, 0.0, 0.0, 0.0, 0.0, 0.0)"
2022/11/28/22:55:21.398244,203,1669697721,397744894,RL_myo,0.727569812737256,0.5127780198662489,-0.28602283074553536,-0.35481235918134807,"(0.0, 0.0, 0.0, 0.0, 0.0, 0.0, 0.0, 0.0, 0.0)",24.6875,1.4375,16.75,"(0.0, 0.0, 0.0, 0.0, 0.0, 0.0, 0.0, 0.0, 0.0)",0.05126953125,0.81640625,0.3076171875,"(0.0, 0.0, 0.0, 0.0, 0.0, 0.0, 0.0, 0.0, 0.0)"
2022/11/28/22:55:21.415482,204,1669697721,414880514,RL_myo,0.726211118574779,0.5146589470350089,-0.2888852936808227,-0.35254626163119207,"(0.0, 0.0, 0.0, 0.0, 0.0, 0.0, 0.0, 0.0, 0.0)",18.125,-3.125,11.25,"(0.0, 0.0, 0.0, 0.0, 0.0, 0.0, 0.0, 0.0, 0.0)",0.06884765625,0.94384765625,0.25048828125,"(0.0, 0.0, 0.0, 0.0, 0.0, 0.0, 0.0, 0.0, 0.0)"
2022/11/28/22:55:21.437511,205,1669697721,437076568,RL_myo,0.7265600586083837,0.5137922188646987,-0.2908925772284574,-0.351439248779156,"(0.0, 0.0, 0.0, 0.0, 0.0, 0.0, 0.0, 0.0, 0.0)",-2.125,-6.9375,14.875,"(0.0, 0.0, 0.0, 0.0, 0.0, 0.0, 0.0, 0.0, 0.0)",0.02978515625,1.0,0.2705078125,"(0.0, 0.0, 0.0, 0.0, 0.0, 0.0, 0.0, 0.0, 0.0)"
2022/11/28/22:55:21.458138,206,1669697721,457602739,RL_myo,0.7285358744923076,0.51045119959611,-0.2932820774912482,-0.35022946111233755,"(0.0, 0.0, 0.0, 0.0, 0.0, 0.0, 0.0, 0.0, 0.0)",-14.9375,-10.4375,23.0625,"(0.0, 0.0, 0.0, 0.0, 0.0, 0.0, 0.0, 0.0, 0.0)",0.04443359375,0.9326171875,0.267578125,"(0.0, 0.0, 0.0, 0.0, 0.0, 0.0, 0.0, 0.0, 0.0)"
2022/11/28/22:55:21.480422,207,1669697721,479877710,RL_myo,0.7300323362516108,0.5075619854751605,-0.2963219624196614,-0.34875050324736256,"(0.0, 0.0, 0.0, 0.0, 0.0, 0.0, 0.0, 0.0, 0.0)",-7.75,-10.5,20.0625,"(0.0, 0.0, 0.0, 0.0, 0.0, 0.0, 0.0, 0.0, 0.0)",0.12158203125,0.9580078125,0.3154296875,"(0.0, 0.0, 0.0, 0.0, 0.0, 0.0, 0.0, 0.0, 0.0)"
2022/11/28/22:55:21.497220,208,1669697721,496516942,RL_myo,0.7279956366993321,0.5088705980684439,-0.29926742741148865,-0.34858582050724285,"(0.0, 0.0, 0.0, 0.0, 0.0, 0.0, 0.0, 0.0, 0.0)",18.125,-11.8125,-0.6875,"(0.0, 0.0, 0.0, 0.0, 0.0, 0.0, 0.0, 0.0, 0.0)",0.1494140625,1.1181640625,0.36474609375,"(0.0, 0.0, 0.0, 0.0, 0.0, 0.0, 0.0, 0.0, 0.0)"
2022/11/28/22:55:21.519324,209,1669697721,517776966,RL_myo,0.7273123641665554,0.5084350447723571,-0.29730937612078645,-0.3523033707594292,"(0.0, 0.0, 0.0, 0.0, 0.0, 0.0, 0.0, 0.0, 0.0)",-9.8125,-5.0625,-20.375,"(0.0, 0.0, 0.0, 0.0, 0.0, 0.0, 0.0, 0.0, 0.0)",0.064453125,1.07373046875,0.35107421875,"(0.0, 0.0, 0.0, 0.0, 0.0, 0.0, 0.0, 0.0, 0.0)"
2022/11/28/22:55:21.534300,210,1669697721,533891677,RL_myo,0.727345452092759,0.5074389601996474,-0.2955279582976537,-0.3551584447199601,"(0.0, 0.0, 0.0, 0.0, 0.0, 0.0, 0.0, 0.0, 0.0)",-20.0,-4.5,-8.625,"(0.0, 0.0, 0.0, 0.0, 0.0, 0.0, 0.0, 0.0, 0.0)",-0.02490234375,1.0458984375,0.2353515625,"(0.0, 0.0, 0.0, 0.0, 0.0, 0.0, 0.0, 0.0, 0.0)"
2022/11/28/22:55:21.558085,211,1669697721,556597471,RL_myo,0.7283859231521298,0.50622028210355,-0.29497981955708424,-0.3552208876106415,"(0.0, 0.0, 0.0, 0.0, 0.0, 0.0, 0.0, 0.0, 0.0)",-9.4375,1.125,3.125,"(0.0, 0.0, 0.0, 0.0, 0.0, 0.0, 0.0, 0.0, 0.0)",0.052734375,0.90185546875,0.29443359375,"(0.0, 0.0, 0.0, 0.0, 0.0, 0.0, 0.0, 0.0, 0.0)"
2022/11/28/22:55:21.578983,212,1669697721,577498435,RL_myo,0.7280350883128197,0.5067802932814673,-0.2951691555232056,-0.3549842449385781,"(0.0, 0.0, 0.0, 0.0, 0.0, 0.0, 0.0, 0.0, 0.0)",3.8125,0.1875,0.4375,"(0.0, 0.0, 0.0, 0.0, 0.0, 0.0, 0.0, 0.0, 0.0)",0.05712890625,0.90869140625,0.29345703125,"(0.0, 0.0, 0.0, 0.0, 0.0, 0.0, 0.0, 0.0, 0.0)"
2022/11/28/22:55:21.593902,213,1669697721,593453168,RL_myo,0.7265748954494164,0.5081873806713576,-0.29626970283194454,-0.35504756105756513,"(0.0, 0.0, 0.0, 0.0, 0.0, 0.0, 0.0, 0.0, 0.0)",10.3125,-5.25,0.375,"(0.0, 0.0, 0.0, 0.0, 0.0, 0.0, 0.0, 0.0, 0.0)",0.0302734375,0.96728515625,0.2900390625,"(0.0, 0.0, 0.0, 0.0, 0.0, 0.0, 0.0, 0.0, 0.0)"
2022/11/28/22:55:21.617692,214,1669697721,617133378,RL_myo,0.7260631318760842,0.508170951244139,-0.2966873641601921,-0.3557684932503106,"(0.0, 0.0, 0.0, 0.0, 0.0, 0.0, 0.0, 0.0, 0.0)",2.125,-5.75,-0.125,"(0.0, 0.0, 0.0, 0.0, 0.0, 0.0, 0.0, 0.0, 0.0)",0.0263671875,0.95556640625,0.3232421875,"(0.0, 0.0, 0.0, 0.0, 0.0, 0.0, 0.0, 0.0, 0.0)"
2022/11/28/22:55:21.638413,215,1669697721,637751579,RL_myo,0.7267559923950199,0.5065380012502116,-0.2968182070225062,-0.3565724790099694,"(0.0, 0.0, 0.0, 0.0, 0.0, 0.0, 0.0, 0.0, 0.0)",-7.125,-5.125,0.6875,"(0.0, 0.0, 0.0, 0.0, 0.0, 0.0, 0.0, 0.0, 0.0)",0.07666015625,0.9248046875,0.3466796875,"(0.0, 0.0, 0.0, 0.0, 0.0, 0.0, 0.0, 0.0, 0.0)"
2022/11/28/22:55:21.654586,216,1669697721,654217243,RL_myo,0.7279122777523829,0.504948706510604,-0.29669474946791324,-0.35657081390486506,"(0.0, 0.0, 0.0, 0.0, 0.0, 0.0, 0.0, 0.0, 0.0)",-6.75,-0.125,1.875,"(0.0, 0.0, 0.0, 0.0, 0.0, 0.0, 0.0, 0.0, 0.0)",0.11279296875,0.92236328125,0.359375,"(0.0, 0.0, 0.0, 0.0, 0.0, 0.0, 0.0, 0.0, 0.0)"
2022/11/28/22:55:21.677120,217,1669697721,676805734,RL_myo,0.7289177497446317,0.5038090023775071,-0.29585197898276927,-0.35682910442196597,"(0.0, 0.0, 0.0, 0.0, 0.0, 0.0, 0.0, 0.0, 0.0)",-7.5,2.1875,0.0,"(0.0, 0.0, 0.0, 0.0, 0.0, 0.0, 0.0, 0.0, 0.0)",0.0751953125,0.92626953125,0.3427734375,"(0.0, 0.0, 0.0, 0.0, 0.0, 0.0, 0.0, 0.0, 0.0)"
2022/11/28/22:55:21.698584,218,1669697721,698118686,RL_myo,0.7295365699219967,0.5031013089489683,-0.2943048055018713,-0.35784095285306333,"(0.0, 0.0, 0.0, 0.0, 0.0, 0.0, 0.0, 0.0, 0.0)",-9.1875,1.9375,-3.0,"(0.0, 0.0, 0.0, 0.0, 0.0, 0.0, 0.0, 0.0, 0.0)",0.02099609375,0.93359375,0.32275390625,"(0.0, 0.0, 0.0, 0.0, 0.0, 0.0, 0.0, 0.0, 0.0)"
2022/11/28/22:55:21.714281,219,1669697721,713967800,RL_myo,0.7299301663620319,0.5025708662785325,-0.29340031020171314,-0.35852577951422154,"(0.0, 0.0, 0.0, 0.0, 0.0, 0.0, 0.0, 0.0, 0.0)",-6.625,0.5,-1.875,"(0.0, 0.0, 0.0, 0.0, 0.0, 0.0, 0.0, 0.0, 0.0)",0.0361328125,0.95654296875,0.322265625,"(0.0, 0.0, 0.0, 0.0, 0.0, 0.0, 0.0, 0.0, 0.0)"
2022/11/28/22:55:21.737605,220,1669697721,737209558,RL_myo,0.7298890903455331,0.502645648017684,-0.29261484354544953,-0.3591459614980027,"(0.0, 0.0, 0.0, 0.0, 0.0, 0.0, 0.0, 0.0, 0.0)",-3.6875,1.375,-4.125,"(0.0, 0.0, 0.0, 0.0, 0.0, 0.0, 0.0, 0.0, 0.0)",0.05615234375,0.96142578125,0.3115234375,"(0.0, 0.0, 0.0, 0.0, 0.0, 0.0, 0.0, 0.0, 0.0)"
2022/11/28/22:55:21.759684,221,1669697721,759298086,RL_myo,0.7294440668583517,0.5035489541947453,-0.291203886116743,-0.3599306888347168,"(0.0, 0.0, 0.0, 0.0, 0.0, 0.0, 0.0, 0.0, 0.0)",-1.0,3.5625,-6.125,"(0.0, 0.0, 0.0, 0.0, 0.0, 0.0, 0.0, 0.0, 0.0)",0.01025390625,0.99755859375,0.31005859375,"(0.0, 0.0, 0.0, 0.0, 0.0, 0.0, 0.0, 0.0, 0.0)"
2022/11/28/22:55:21.774248,222,1669697721,773964881,RL_myo,0.728338496894735,0.5059855978594949,-0.2887596940257262,-0.36072073381780634,"(0.0, 0.0, 0.0, 0.0, 0.0, 0.0, 0.0, 0.0, 0.0)",1.375,8.5,-7.625,"(0.0, 0.0, 0.0, 0.0, 0.0, 0.0, 0.0, 0.0, 0.0)",-0.07177734375,1.05517578125,0.27587890625,"(0.0, 0.0, 0.0, 0.0, 0.0, 0.0, 0.0, 0.0, 0.0)"
2022/11/28/22:55:21.797395,223,1669697721,797004461,RL_myo,0.7268066365636514,0.5100707979310073,-0.2853393538742921,-0.3607788065777413,"(0.0, 0.0, 0.0, 0.0, 0.0, 0.0, 0.0, 0.0, 0.0)",5.75,16.5,-8.125,"(0.0, 0.0, 0.0, 0.0, 0.0, 0.0, 0.0, 0.0, 0.0)",-0.1259765625,1.15478515625,0.25439453125,"(0.0, 0.0, 0.0, 0.0, 0.0, 0.0, 0.0, 0.0, 0.0)"
2022/11/28/22:55:21.819634,224,1669697721,819066762,RL_myo,0.7244648695617523,0.5153038663614048,-0.2806309578976358,-0.36174416865143266,"(0.0, 0.0, 0.0, 0.0, 0.0, 0.0, 0.0, 0.0, 0.0)",13.5,19.3125,-17.6875,"(0.0, 0.0, 0.0, 0.0, 0.0, 0.0, 0.0, 0.0, 0.0)",-0.15966796875,1.142578125,0.32080078125,"(0.0, 0.0, 0.0, 0.0, 0.0, 0.0, 0.0, 0.0, 0.0)"
2022/11/28/22:55:21.833913,225,1669697721,833511590,RL_myo,0.7206475034026386,0.5214272568449854,-0.27472130200857764,-0.36511504745952267,"(0.0, 0.0, 0.0, 0.0, 0.0, 0.0, 0.0, 0.0, 0.0)",23.8125,17.5625,-38.625,"(0.0, 0.0, 0.0, 0.0, 0.0, 0.0, 0.0, 0.0, 0.0)",-0.13916015625,1.05029296875,0.408203125,"(0.0, 0.0, 0.0, 0.0, 0.0, 0.0, 0.0, 0.0, 0.0)"
2022/11/28/22:55:21.857434,226,1669697721,857113838,RL_myo,0.7153987097097289,0.5294231215785503,-0.2673360932112117,-0.36938767947814,"(0.0, 0.0, 0.0, 0.0, 0.0, 0.0, 0.0, 0.0, 0.0)",31.1875,23.625,-56.3125,"(0.0, 0.0, 0.0, 0.0, 0.0, 0.0, 0.0, 0.0, 0.0)",-0.11572265625,1.12451171875,0.41748046875,"(0.0, 0.0, 0.0, 0.0, 0.0, 0.0, 0.0, 0.0, 0.0)"
2022/11/28/22:55:21.879374,227,1669697721,879053831,RL_myo,0.7092354036334002,0.5380911633762526,-0.25750982512300474,-0.3756750352292236,"(0.0, 0.0, 0.0, 0.0, 0.0, 0.0, 0.0, 0.0, 0.0)",30.1875,29.125,-77.25,"(0.0, 0.0, 0.0, 0.0, 0.0, 0.0, 0.0, 0.0, 0.0)",-0.1162109375,1.19091796875,0.45361328125,"(0.0, 0.0, 0.0, 0.0, 0.0, 0.0, 0.0, 0.0, 0.0)"
2022/11/28/22:55:21.900690,228,1669697721,900038957,RL_myo,0.7023031951083325,0.546656302397899,-0.24470133053965798,-0.38478353397904813,"(0.0, 0.0, 0.0, 0.0, 0.0, 0.0, 0.0, 0.0, 0.0)",16.8125,32.4375,-104.625,"(0.0, 0.0, 0.0, 0.0, 0.0, 0.0, 0.0, 0.0, 0.0)",-0.0791015625,1.1640625,0.44873046875,"(0.0, 0.0, 0.0, 0.0, 0.0, 0.0, 0.0, 0.0, 0.0)"
2022/11/28/22:55:21.917418,229,1669697721,916726827,RL_myo,0.6959344131696792,0.5542084258534193,-0.22845838523891504,-0.39539231086767074,"(0.0, 0.0, 0.0, 0.0, 0.0, 0.0, 0.0, 0.0, 0.0)",0.5625,40.0625,-118.5625,"(0.0, 0.0, 0.0, 0.0, 0.0, 0.0, 0.0, 0.0, 0.0)",-0.10693359375,1.13623046875,0.39453125,"(0.0, 0.0, 0.0, 0.0, 0.0, 0.0, 0.0, 0.0, 0.0)"
2022/11/28/22:55:21.940439,230,1669697721,939912557,RL_myo,0.6896507180528614,0.5619014523758423,-0.20904980169316315,-0.4061364614500168,"(0.0, 0.0, 0.0, 0.0, 0.0, 0.0, 0.0, 0.0, 0.0)",-6.3125,52.75,-128.875,"(0.0, 0.0, 0.0, 0.0, 0.0, 0.0, 0.0, 0.0, 0.0)",-0.18701171875,1.068359375,0.380859375,"(0.0, 0.0, 0.0, 0.0, 0.0, 0.0, 0.0, 0.0, 0.0)"
2022/11/28/22:55:21.960701,231,1669697721,960116147,RL_myo,0.6823936141607777,0.5703907266844783,-0.18829913235116272,-0.41657749701675384,"(0.0, 0.0, 0.0, 0.0, 0.0, 0.0, 0.0, 0.0, 0.0)",-2.0625,59.8125,-135.8125,"(0.0, 0.0, 0.0, 0.0, 0.0, 0.0, 0.0, 0.0, 0.0)",-0.20166015625,0.96533203125,0.38916015625,"(0.0, 0.0, 0.0, 0.0, 0.0, 0.0, 0.0, 0.0, 0.0)"
2022/11/28/22:55:21.977038,232,1669697721,976588249,RL_myo,0.6737787138526867,0.5794777705695632,-0.16809372026001443,-0.42658206641148905,"(0.0, 0.0, 0.0, 0.0, 0.0, 0.0, 0.0, 0.0, 0.0)",5.5625,59.375,-136.6875,"(0.0, 0.0, 0.0, 0.0, 0.0, 0.0, 0.0, 0.0, 0.0)",-0.181640625,0.8994140625,0.330078125,"(0.0, 0.0, 0.0, 0.0, 0.0, 0.0, 0.0, 0.0, 0.0)"
2022/11/28/22:55:21.999899,233,1669697721,999263763,RL_myo,0.6642591723729043,0.5891843968497331,-0.148745713780462,-0.43531162522866435,"(0.0, 0.0, 0.0, 0.0, 0.0, 0.0, 0.0, 0.0, 0.0)",14.375,60.8125,-131.8125,"(0.0, 0.0, 0.0, 0.0, 0.0, 0.0, 0.0, 0.0, 0.0)",-0.22119140625,0.85009765625,0.29833984375,"(0.0, 0.0, 0.0, 0.0, 0.0, 0.0, 0.0, 0.0, 0.0)"
2022/11/28/22:55:22.020879,234,1669697722,20210742,RL_myo,0.6541042687966582,0.5992954945707182,-0.13110161140013266,-0.4424984556103174,"(0.0, 0.0, 0.0, 0.0, 0.0, 0.0, 0.0, 0.0, 0.0)",23.25,60.0,-122.1875,"(0.0, 0.0, 0.0, 0.0, 0.0, 0.0, 0.0, 0.0, 0.0)",-0.240234375,0.79150390625,0.2607421875,"(0.0, 0.0, 0.0, 0.0, 0.0, 0.0, 0.0, 0.0, 0.0)"
2022/11/28/22:55:22.037947,235,1669697722,37485122,RL_myo,0.6443706733155521,0.6089690449625142,-0.1154825531792199,-0.4478916359561922,"(0.0, 0.0, 0.0, 0.0, 0.0, 0.0, 0.0, 0.0, 0.0)",27.0625,58.375,-107.875,"(0.0, 0.0, 0.0, 0.0, 0.0, 0.0, 0.0, 0.0, 0.0)",-0.19970703125,0.755859375,0.2607421875,"(0.0, 0.0, 0.0, 0.0, 0.0, 0.0, 0.0, 0.0, 0.0)"
2022/11/28/22:55:22.060667,236,1669697722,59428930,RL_myo,0.6364469058994117,0.6170367096707732,-0.10333793149397755,-0.4511344664335428,"(0.0, 0.0, 0.0, 0.0, 0.0, 0.0, 0.0, 0.0, 0.0)",27.25,53.0,-91.1875,"(0.0, 0.0, 0.0, 0.0, 0.0, 0.0, 0.0, 0.0, 0.0)",-0.17431640625,0.72998046875,0.23388671875,"(0.0, 0.0, 0.0, 0.0, 0.0, 0.0, 0.0, 0.0, 0.0)"
2022/11/28/22:55:22.081836,237,1669697722,80266714,RL_myo,0.629953670098045,0.623911095411512,-0.09314110072372994,-0.45300999316613605,"(0.0, 0.0, 0.0, 0.0, 0.0, 0.0, 0.0, 0.0, 0.0)",23.125,48.0625,-73.1875,"(0.0, 0.0, 0.0, 0.0, 0.0, 0.0, 0.0, 0.0, 0.0)",-0.20166015625,0.69384765625,0.20458984375,"(0.0, 0.0, 0.0, 0.0, 0.0, 0.0, 0.0, 0.0, 0.0)"
2022/11/28/22:55:22.105236,238,1669697722,104829788,RL_myo,0.6256721255860512,0.6293952745140338,-0.08508310828865041,-0.45294242941899193,"(0.0, 0.0, 0.0, 0.0, 0.0, 0.0, 0.0, 0.0, 0.0)",16.4375,44.1875,-50.6875,"(0.0, 0.0, 0.0, 0.0, 0.0, 0.0, 0.0, 0.0, 0.0)",-0.22998046875,0.67333984375,0.18603515625,"(0.0, 0.0, 0.0, 0.0, 0.0, 0.0, 0.0, 0.0, 0.0)"
2022/11/28/22:55:22.119865,239,1669697722,119285106,RL_myo,0.6237897587010393,0.6330672580476692,-0.07885874444635448,-0.45154565898926496,"(0.0, 0.0, 0.0, 0.0, 0.0, 0.0, 0.0, 0.0, 0.0)",6.6875,38.9375,-31.75,"(0.0, 0.0, 0.0, 0.0, 0.0, 0.0, 0.0, 0.0, 0.0)",-0.23583984375,0.65966796875,0.1826171875,"(0.0, 0.0, 0.0, 0.0, 0.0, 0.0, 0.0, 0.0, 0.0)"
2022/11/28/22:55:22.140796,240,1669697722,140188217,RL_myo,0.6231098762709567,0.6355000520847489,-0.07470726697577149,-0.44976948557553925,"(0.0, 0.0, 0.0, 0.0, 0.0, 0.0, 0.0, 0.0, 0.0)",3.5,29.5625,-16.0,"(0.0, 0.0, 0.0, 0.0, 0.0, 0.0, 0.0, 0.0, 0.0)",-0.2880859375,0.6494140625,0.17626953125,"(0.0, 0.0, 0.0, 0.0, 0.0, 0.0, 0.0, 0.0, 0.0)"
2022/11/28/22:55:22.157118,241,1669697722,156774044,RL_myo,0.6222475962060421,0.6378724500195533,-0.0730583984952067,-0.44787178626384866,"(0.0, 0.0, 0.0, 0.0, 0.0, 0.0, 0.0, 0.0, 0.0)",8.3125,18.6875,-3.875,"(0.0, 0.0, 0.0, 0.0, 0.0, 0.0, 0.0, 0.0, 0.0)",-0.34619140625,0.6591796875,0.134765625,"(0.0, 0.0, 0.0, 0.0, 0.0, 0.0, 0.0, 0.0, 0.0)"
2022/11/28/22:55:22.179971,242,1669697722,179340362,RL_myo,0.6217079728398921,0.6396524205146347,-0.07287643035252613,-0.44610873487991076,"(0.0, 0.0, 0.0, 0.0, 0.0, 0.0, 0.0, 0.0, 0.0)",8.125,11.25,2.8125,"(0.0, 0.0, 0.0, 0.0, 0.0, 0.0, 0.0, 0.0, 0.0)",-0.392578125,0.71630859375,0.13427734375,"(0.0, 0.0, 0.0, 0.0, 0.0, 0.0, 0.0, 0.0, 0.0)"
2022/11/28/22:55:22.200752,243,1669697722,200071334,RL_myo,0.6217885773931262,0.6405270767805503,-0.07300079891647972,-0.4447189138005613,"(0.0, 0.0, 0.0, 0.0, 0.0, 0.0, 0.0, 0.0, 0.0)",2.8125,6.1875,6.4375,"(0.0, 0.0, 0.0, 0.0, 0.0, 0.0, 0.0, 0.0, 0.0)",-0.45068359375,0.7783203125,0.1357421875,"(0.0, 0.0, 0.0, 0.0, 0.0, 0.0, 0.0, 0.0, 0.0)"
2022/11/28/22:55:22.217293,244,1669697722,216814756,RL_myo,0.6222176836583737,0.6405900127520731,-0.07361139165116723,-0.4439267425198501,"(0.0, 0.0, 0.0, 0.0, 0.0, 0.0, 0.0, 0.0, 0.0)",-1.0,0.125,7.375,"(0.0, 0.0, 0.0, 0.0, 0.0, 0.0, 0.0, 0.0, 0.0)",-0.46826171875,0.81396484375,0.1357421875,"(0.0, 0.0, 0.0, 0.0, 0.0, 0.0, 0.0, 0.0, 0.0)"
2022/11/28/22:55:22.239807,245,1669697722,239408731,RL_myo,0.6232009331987344,0.6399254244520599,-0.07507709577222756,-0.44326005650237116,"(0.0, 0.0, 0.0, 0.0, 0.0, 0.0, 0.0, 0.0, 0.0)",-1.4375,-3.4375,9.0,"(0.0, 0.0, 0.0, 0.0, 0.0, 0.0, 0.0, 0.0, 0.0)",-0.43017578125,0.82470703125,0.171875,"(0.0, 0.0, 0.0, 0.0, 0.0, 0.0, 0.0, 0.0, 0.0)"
2022/11/28/22:55:22.260669,246,1669697722,260109901,RL_myo,0.6242709072164687,0.6389194228335936,-0.07666056506295314,-0.4429344909728113,"(0.0, 0.0, 0.0, 0.0, 0.0, 0.0, 0.0, 0.0, 0.0)",-1.8125,-5.375,7.125,"(0.0, 0.0, 0.0, 0.0, 0.0, 0.0, 0.0, 0.0, 0.0)",-0.408203125,0.84228515625,0.19140625,"(0.0, 0.0, 0.0, 0.0, 0.0, 0.0, 0.0, 0.0, 0.0)"
2022/11/28/22:55:22.276953,247,1669697722,276634931,RL_myo,0.625390447910505,0.6378421023486998,-0.07782284023871695,-0.44270514529522675,"(0.0, 0.0, 0.0, 0.0, 0.0, 0.0, 0.0, 0.0, 0.0)",-4.1875,-4.3125,4.5625,"(0.0, 0.0, 0.0, 0.0, 0.0, 0.0, 0.0, 0.0, 0.0)",-0.42138671875,0.8974609375,0.19287109375,"(0.0, 0.0, 0.0, 0.0, 0.0, 0.0, 0.0, 0.0, 0.0)"
2022/11/28/22:55:22.300030,248,1669697722,299513816,RL_myo,0.6268341300732436,0.6364166966186671,-0.07830848966737794,-0.4426291247605806,"(0.0, 0.0, 0.0, 0.0, 0.0, 0.0, 0.0, 0.0, 0.0)",-8.375,-3.5,3.1875,"(0.0, 0.0, 0.0, 0.0, 0.0, 0.0, 0.0, 0.0, 0.0)",-0.43017578125,0.88916015625,0.19287109375,"(0.0, 0.0, 0.0, 0.0, 0.0, 0.0, 0.0, 0.0, 0.0)"
2022/11/28/22:55:22.322017,249,1669697722,321132898,RL_myo,0.6281288511654046,0.6350870368648367,-0.0786763277769125,-0.4426382692305426,"(0.0, 0.0, 0.0, 0.0, 0.0, 0.0, 0.0, 0.0, 0.0)",-7.75,-3.4375,3.75,"(0.0, 0.0, 0.0, 0.0, 0.0, 0.0, 0.0, 0.0, 0.0)",-0.42626953125,0.84765625,0.1875,"(0.0, 0.0, 0.0, 0.0, 0.0, 0.0, 0.0, 0.0, 0.0)"
2022/11/28/22:55:22.337583,250,1669697722,337111711,RL_myo,0.6288076062038782,0.6344840872150372,-0.0784330978423591,-0.44258240657972436,"(0.0, 0.0, 0.0, 0.0, 0.0, 0.0, 0.0, 0.0, 0.0)",-6.1875,-0.5625,1.3125,"(0.0, 0.0, 0.0, 0.0, 0.0, 0.0, 0.0, 0.0, 0.0)",-0.462890625,0.86669921875,0.16943359375,"(0.0, 0.0, 0.0, 0.0, 0.0, 0.0, 0.0, 0.0, 0.0)"
2022/11/28/22:55:22.359699,251,1669697722,359207153,RL_myo,0.6286066592989216,0.6348323005503528,-0.07763740854725976,-0.44250881443996326,"(0.0, 0.0, 0.0, 0.0, 0.0, 0.0, 0.0, 0.0, 0.0)",-1.6875,2.4375,-0.4375,"(0.0, 0.0, 0.0, 0.0, 0.0, 0.0, 0.0, 0.0, 0.0)",-0.5126953125,0.86767578125,0.15771484375,"(0.0, 0.0, 0.0, 0.0, 0.0, 0.0, 0.0, 0.0, 0.0)"
2022/11/28/22:55:22.381264,252,1669697722,380300760,RL_myo,0.628075047064155,0.6351553877307674,-0.07678507378102108,-0.44294855360005564,"(0.0, 0.0, 0.0, 0.0, 0.0, 0.0, 0.0, 0.0, 0.0)",1.625,1.6875,-2.5625,"(0.0, 0.0, 0.0, 0.0, 0.0, 0.0, 0.0, 0.0, 0.0)",-0.51416015625,0.837890625,0.1884765625,"(0.0, 0.0, 0.0, 0.0, 0.0, 0.0, 0.0, 0.0, 0.0)"
2022/11/28/22:55:22.397488,253,1669697722,397146940,RL_myo,0.6274599601964322,0.6354558021016591,-0.07617412746353575,-0.44349455941510474,"(0.0, 0.0, 0.0, 0.0, 0.0, 0.0, 0.0, 0.0, 0.0)",1.8125,0.375,-3.125,"(0.0, 0.0, 0.0, 0.0, 0.0, 0.0, 0.0, 0.0, 0.0)",-0.49951171875,0.84130859375,0.18212890625,"(0.0, 0.0, 0.0, 0.0, 0.0, 0.0, 0.0, 0.0, 0.0)"
2022/11/28/22:55:22.420100,254,1669697722,419492244,RL_myo,0.6268893002807977,0.6358614283249295,-0.0754391174322915,-0.44384568120357915,"(0.0, 0.0, 0.0, 0.0, 0.0, 0.0, 0.0, 0.0, 0.0)",1.375,1.1875,-2.125,"(0.0, 0.0, 0.0, 0.0, 0.0, 0.0, 0.0, 0.0, 0.0)",-0.517578125,0.84326171875,0.17236328125,"(0.0, 0.0, 0.0, 0.0, 0.0, 0.0, 0.0, 0.0, 0.0)"
2022/11/28/22:55:22.440563,255,1669697722,439980506,RL_myo,0.626524166931031,0.6359235553097332,-0.0747068271138414,-0.4443957583463065,"(0.0, 0.0, 0.0, 0.0, 0.0, 0.0, 0.0, 0.0, 0.0)",0.1875,0.625,-3.0,"(0.0, 0.0, 0.0, 0.0, 0.0, 0.0, 0.0, 0.0, 0.0)",-0.51171875,0.85693359375,0.1904296875,"(0.0, 0.0, 0.0, 0.0, 0.0, 0.0, 0.0, 0.0, 0.0)"
2022/11/28/22:55:22.458148,256,1669697722,457732200,RL_myo,0.6265853373040899,0.6355574826950602,-0.07440166824212796,-0.4448841343862762,"(0.0, 0.0, 0.0, 0.0, 0.0, 0.0, 0.0, 0.0, 0.0)",-1.4375,-1.4375,-1.1875,"(0.0, 0.0, 0.0, 0.0, 0.0, 0.0, 0.0, 0.0, 0.0)",-0.484375,0.849609375,0.1943359375,"(0.0, 0.0, 0.0, 0.0, 0.0, 0.0, 0.0, 0.0, 0.0)"
2022/11/28/22:55:22.480053,257,1669697722,479195117,RL_myo,0.6266741853651372,0.6353415404174261,-0.0746491213306285,-0.4450259555368867,"(0.0, 0.0, 0.0, 0.0, 0.0, 0.0, 0.0, 0.0, 0.0)",-0.75,-2.25,1.0625,"(0.0, 0.0, 0.0, 0.0, 0.0, 0.0, 0.0, 0.0, 0.0)",-0.46875,0.84326171875,0.17431640625,"(0.0, 0.0, 0.0, 0.0, 0.0, 0.0, 0.0, 0.0, 0.0)"
2022/11/28/22:55:22.500445,258,1669697722,500025272,RL_myo,0.6269728405809337,0.6349076604091582,-0.07440419515850451,-0.4452654665145942,"(0.0, 0.0, 0.0, 0.0, 0.0, 0.0, 0.0, 0.0, 0.0)",-3.375,-1.375,1.0625,"(0.0, 0.0, 0.0, 0.0, 0.0, 0.0, 0.0, 0.0, 0.0)",-0.4873046875,0.83154296875,0.17626953125,"(0.0, 0.0, 0.0, 0.0, 0.0, 0.0, 0.0, 0.0, 0.0)"
2022/11/28/22:55:22.517309,259,1669697722,516919851,RL_myo,0.6272047028109633,0.634284864890184,-0.07415859419183733,-0.44586710335092317,"(0.0, 0.0, 0.0, 0.0, 0.0, 0.0, 0.0, 0.0, 0.0)",-3.4375,-2.8125,0.3125,"(0.0, 0.0, 0.0, 0.0, 0.0, 0.0, 0.0, 0.0, 0.0)",-0.49462890625,0.828125,0.19140625,"(0.0, 0.0, 0.0, 0.0, 0.0, 0.0, 0.0, 0.0, 0.0)"
2022/11/28/22:55:22.539787,260,1669697722,539370298,RL_myo,0.6272709077617341,0.63367972797337,-0.07434231445497637,-0.4466032141765699,"(0.0, 0.0, 0.0, 0.0, 0.0, 0.0, 0.0, 0.0, 0.0)",-1.4375,-4.6875,-0.4375,"(0.0, 0.0, 0.0, 0.0, 0.0, 0.0, 0.0, 0.0, 0.0)",-0.4755859375,0.82568359375,0.19189453125,"(0.0, 0.0, 0.0, 0.0, 0.0, 0.0, 0.0, 0.0, 0.0)"
2022/11/28/22:55:22.560669,261,1669697722,560175657,RL_myo,0.6269616885883008,0.6332483955513649,-0.07476908766751056,-0.4475769141762081,"(0.0, 0.0, 0.0, 0.0, 0.0, 0.0, 0.0, 0.0, 0.0)",0.3125,-6.75,-1.4375,"(0.0, 0.0, 0.0, 0.0, 0.0, 0.0, 0.0, 0.0, 0.0)",-0.4765625,0.83447265625,0.17919921875,"(0.0, 0.0, 0.0, 0.0, 0.0, 0.0, 0.0, 0.0, 0.0)"
2022/11/28/22:55:22.577062,262,1669697722,576763868,RL_myo,0.6265416246015968,0.6327673669990019,-0.07501409221971383,-0.4488027828246996,"(0.0, 0.0, 0.0, 0.0, 0.0, 0.0, 0.0, 0.0, 0.0)",-1.0,-7.4375,-1.625,"(0.0, 0.0, 0.0, 0.0, 0.0, 0.0, 0.0, 0.0, 0.0)",-0.49853515625,0.82470703125,0.16943359375,"(0.0, 0.0, 0.0, 0.0, 0.0, 0.0, 0.0, 0.0, 0.0)"
2022/11/28/22:55:22.599877,263,1669697722,599225044,RL_myo,0.6262436503373131,0.6319811652624308,-0.07495391838345228,-0.45033388422891774,"(0.0, 0.0, 0.0, 0.0, 0.0, 0.0, 0.0, 0.0, 0.0)",-4.125,-9.625,-1.25,"(0.0, 0.0, 0.0, 0.0, 0.0, 0.0, 0.0, 0.0, 0.0)",-0.54296875,0.8388671875,0.15478515625,"(0.0, 0.0, 0.0, 0.0, 0.0, 0.0, 0.0, 0.0, 0.0)"
2022/11/28/22:55:22.621034,264,1669697722,620326995,RL_myo,0.6258929501568392,0.6308371016062935,-0.07495577752999791,-0.45242037707845645,"(0.0, 0.0, 0.0, 0.0, 0.0, 0.0, 0.0, 0.0, 0.0)",-6.375,-13.8125,-0.25,"(0.0, 0.0, 0.0, 0.0, 0.0, 0.0, 0.0, 0.0, 0.0)",-0.58642578125,0.8173828125,0.1435546875,"(0.0, 0.0, 0.0, 0.0, 0.0, 0.0, 0.0, 0.0, 0.0)"
2022/11/28/22:55:22.636412,265,1669697722,635958671,RL_myo,0.6250835556237628,0.6295392825606375,-0.07532009643977378,-0.45527763318012365,"(0.0, 0.0, 0.0, 0.0, 0.0, 0.0, 0.0, 0.0, 0.0)",-6.1875,-20.4375,1.4375,"(0.0, 0.0, 0.0, 0.0, 0.0, 0.0, 0.0, 0.0, 0.0)",-0.6337890625,0.78271484375,0.1123046875,"(0.0, 0.0, 0.0, 0.0, 0.0, 0.0, 0.0, 0.0, 0.0)"
2022/11/28/22:55:22.659559,266,1669697722,659147739,RL_myo,0.6238515978601815,0.6280630996948701,-0.07678361315997537,-0.45874851868869226,"(0.0, 0.0, 0.0, 0.0, 0.0, 0.0, 0.0, 0.0, 0.0)",-3.4375,-28.4375,5.1875,"(0.0, 0.0, 0.0, 0.0, 0.0, 0.0, 0.0, 0.0, 0.0)",-0.66650390625,0.73974609375,0.091796875,"(0.0, 0.0, 0.0, 0.0, 0.0, 0.0, 0.0, 0.0, 0.0)"
2022/11/28/22:55:22.680389,267,1669697722,679988384,RL_myo,0.6220396367466269,0.6266174968934227,-0.08111968180122334,-0.4624249129616765,"(0.0, 0.0, 0.0, 0.0, 0.0, 0.0, 0.0, 0.0, 0.0)",6.3125,-40.3125,16.0625,"(0.0, 0.0, 0.0, 0.0, 0.0, 0.0, 0.0, 0.0, 0.0)",-0.7041015625,0.728515625,0.09033203125,"(0.0, 0.0, 0.0, 0.0, 0.0, 0.0, 0.0, 0.0, 0.0)"
2022/11/28/22:55:22.696469,268,1669697722,696132659,RL_myo,0.6192823005627625,0.6252639352419612,-0.08923622347947553,-0.4664454308003776,"(0.0, 0.0, 0.0, 0.0, 0.0, 0.0, 0.0, 0.0, 0.0)",19.375,-55.5625,26.5625,"(0.0, 0.0, 0.0, 0.0, 0.0, 0.0, 0.0, 0.0, 0.0)",-0.71875,0.744140625,0.0888671875,"(0.0, 0.0, 0.0, 0.0, 0.0, 0.0, 0.0, 0.0, 0.0)"
2022/11/28/22:55:22.719900,269,1669697722,719294071,RL_myo,0.6166962252809431,0.6229828158593217,-0.10095165841396278,-0.4705177356186451,"(0.0, 0.0, 0.0, 0.0, 0.0, 0.0, 0.0, 0.0, 0.0)",25.4375,-70.125,39.0625,"(0.0, 0.0, 0.0, 0.0, 0.0, 0.0, 0.0, 0.0, 0.0)",-0.68798828125,0.75,0.10205078125,"(0.0, 0.0, 0.0, 0.0, 0.0, 0.0, 0.0, 0.0, 0.0)"
2022/11/28/22:55:22.742108,270,1669697722,741781234,RL_myo,0.6151859846843586,0.6191533513878493,-0.11523674363370065,-0.4742529120942024,"(0.0, 0.0, 0.0, 0.0, 0.0, 0.0, 0.0, 0.0, 0.0)",24.8125,-80.5,51.3125,"(0.0, 0.0, 0.0, 0.0, 0.0, 0.0, 0.0, 0.0, 0.0)",-0.64892578125,0.77783203125,0.130859375,"(0.0, 0.0, 0.0, 0.0, 0.0, 0.0, 0.0, 0.0, 0.0)"
2022/11/28/22:55:22.756755,271,1669697722,756414651,RL_myo,0.6147111202337004,0.6136124408409682,-0.13202464035999345,-0.4776813848623711,"(0.0, 0.0, 0.0, 0.0, 0.0, 0.0, 0.0, 0.0, 0.0)",24.0625,-91.25,66.5625,"(0.0, 0.0, 0.0, 0.0, 0.0, 0.0, 0.0, 0.0, 0.0)",-0.6494140625,0.791015625,0.17041015625,"(0.0, 0.0, 0.0, 0.0, 0.0, 0.0, 0.0, 0.0, 0.0)"
2022/11/28/22:55:22.780492,272,1669697722,780069112,RL_myo,0.616578884923061,0.6048601019191778,-0.1528324616756429,-0.48022596184662875,"(0.0, 0.0, 0.0, 0.0, 0.0, 0.0, 0.0, 0.0, 0.0)",17.625,-106.0625,79.875,"(0.0, 0.0, 0.0, 0.0, 0.0, 0.0, 0.0, 0.0, 0.0)",-0.62890625,0.80859375,0.20263671875,"(0.0, 0.0, 0.0, 0.0, 0.0, 0.0, 0.0, 0.0, 0.0)"
2022/11/28/22:55:22.804166,273,1669697722,802097320,RL_myo,0.6192894840068198,0.5936536094471052,-0.17676545886888922,-0.4825037818917712,"(0.0, 0.0, 0.0, 0.0, 0.0, 0.0, 0.0, 0.0, 0.0)",15.4375,-121.5625,95.625,"(0.0, 0.0, 0.0, 0.0, 0.0, 0.0, 0.0, 0.0, 0.0)",-0.529296875,0.81201171875,0.2509765625,"(0.0, 0.0, 0.0, 0.0, 0.0, 0.0, 0.0, 0.0, 0.0)"
2022/11/28/22:55:22.815780,274,1669697722,815414428,RL_myo,0.6226208605319409,0.5806896252427101,-0.20349161347059022,-0.48346042900436265,"(0.0, 0.0, 0.0, 0.0, 0.0, 0.0, 0.0, 0.0, 0.0)",16.5625,-130.3125,109.875,"(0.0, 0.0, 0.0, 0.0, 0.0, 0.0, 0.0, 0.0, 0.0)",-0.2802734375,0.86328125,0.27587890625,"(0.0, 0.0, 0.0, 0.0, 0.0, 0.0, 0.0, 0.0, 0.0)"
2022/11/28/22:55:22.839874,275,1669697722,839297294,RL_myo,0.6255092487728406,0.5674018322201724,-0.23120892216544892,-0.4830484186951855,"(0.0, 0.0, 0.0, 0.0, 0.0, 0.0, 0.0, 0.0, 0.0)",22.1875,-129.625,114.5625,"(0.0, 0.0, 0.0, 0.0, 0.0, 0.0, 0.0, 0.0, 0.0)",-0.0673828125,0.8544921875,0.36376953125,"(0.0, 0.0, 0.0, 0.0, 0.0, 0.0, 0.0, 0.0, 0.0)"
2022/11/28/22:55:22.862854,276,1669697722,861973762,RL_myo,0.6278754624326628,0.5534727999746658,-0.25781529632697264,-0.48267125079396306,"(0.0, 0.0, 0.0, 0.0, 0.0, 0.0, 0.0, 0.0, 0.0)",18.125,-129.0,111.5,"(0.0, 0.0, 0.0, 0.0, 0.0, 0.0, 0.0, 0.0, 0.0)",-0.11962890625,0.82470703125,0.3193359375,"(0.0, 0.0, 0.0, 0.0, 0.0, 0.0, 0.0, 0.0, 0.0)"
2022/11/28/22:55:22.883019,277,1669697722,882571458,RL_myo,0.6303291846405749,0.5379191540851541,-0.28614149487702284,-0.48109369936448254,"(0.0, 0.0, 0.0, 0.0, 0.0, 0.0, 0.0, 0.0, 0.0)",18.125,-136.0625,125.3125,"(0.0, 0.0, 0.0, 0.0, 0.0, 0.0, 0.0, 0.0, 0.0)",-0.1298828125,0.884765625,0.318359375,"(0.0, 0.0, 0.0, 0.0, 0.0, 0.0, 0.0, 0.0, 0.0)"
2022/11/28/22:55:22.899799,278,1669697722,899028539,RL_myo,0.6329843741736296,0.5202544407922108,-0.318231658175808,-0.47685921467732795,"(0.0, 0.0, 0.0, 0.0, 0.0, 0.0, 0.0, 0.0, 0.0)",25.375,-146.4375,148.4375,"(0.0, 0.0, 0.0, 0.0, 0.0, 0.0, 0.0, 0.0, 0.0)",0.04638671875,0.89501953125,0.359375,"(0.0, 0.0, 0.0, 0.0, 0.0, 0.0, 0.0, 0.0, 0.0)"
2022/11/28/22:55:22.922341,279,1669697722,921896219,RL_myo,0.636360906252953,0.50012864625328,-0.34998018765148986,-0.47162485350245237,"(0.0, 0.0, 0.0, 0.0, 0.0, 0.0, 0.0, 0.0, 0.0)",14.8125,-146.8125,153.375,"(0.0, 0.0, 0.0, 0.0, 0.0, 0.0, 0.0, 0.0, 0.0)",0.3486328125,0.9091796875,0.3212890625,"(0.0, 0.0, 0.0, 0.0, 0.0, 0.0, 0.0, 0.0, 0.0)"
2022/11/28/22:55:22.936460,280,1669697722,936008930,RL_myo,0.6409229675845861,0.47887645021128106,-0.3771319890205845,-0.4665474873075494,"(0.0, 0.0, 0.0, 0.0, 0.0, 0.0, 0.0, 0.0, 0.0)",-6.4375,-130.8125,143.625,"(0.0, 0.0, 0.0, 0.0, 0.0, 0.0, 0.0, 0.0, 0.0)",0.4814453125,0.8818359375,0.26123046875,"(0.0, 0.0, 0.0, 0.0, 0.0, 0.0, 0.0, 0.0, 0.0)"
2022/11/28/22:55:22.959935,281,1669697722,959579944,RL_myo,0.6453221708031284,0.4584942917878654,-0.3989852483249835,-0.4627667359339184,"(0.0, 0.0, 0.0, 0.0, 0.0, 0.0, 0.0, 0.0, 0.0)",-20.375,-113.125,123.4375,"(0.0, 0.0, 0.0, 0.0, 0.0, 0.0, 0.0, 0.0, 0.0)",0.46875,0.8466796875,0.228515625,"(0.0, 0.0, 0.0, 0.0, 0.0, 0.0, 0.0, 0.0, 0.0)"
2022/11/28/22:55:22.982168,282,1669697722,981853961,RL_myo,0.6480391734632718,0.43947273701945533,-0.41676664560678345,-0.46175156327113603,"(0.0, 0.0, 0.0, 0.0, 0.0, 0.0, 0.0, 0.0, 0.0)",-28.8125,-105.6875,95.0,"(0.0, 0.0, 0.0, 0.0, 0.0, 0.0, 0.0, 0.0, 0.0)",0.4716796875,0.78466796875,0.17236328125,"(0.0, 0.0, 0.0, 0.0, 0.0, 0.0, 0.0, 0.0, 0.0)"
2022/11/28/22:55:23.003411,283,1669697723,2676248,RL_myo,0.6492332558978433,0.423646519618965,-0.4345108159007941,-0.4584977172421359,"(0.0, 0.0, 0.0, 0.0, 0.0, 0.0, 0.0, 0.0, 0.0)",-14.625,-89.3125,75.1875,"(0.0, 0.0, 0.0, 0.0, 0.0, 0.0, 0.0, 0.0, 0.0)",0.482421875,0.78173828125,0.09716796875,"(0.0, 0.0, 0.0, 0.0, 0.0, 0.0, 0.0, 0.0, 0.0)"
2022/11/28/22:55:23.019979,284,1669697723,19479751,RL_myo,0.648821704909806,0.4135246520003702,-0.44929224551656455,-0.45405311973885665,"(0.0, 0.0, 0.0, 0.0, 0.0, 0.0, 0.0, 0.0, 0.0)",7.25,-66.1875,60.375,"(0.0, 0.0, 0.0, 0.0, 0.0, 0.0, 0.0, 0.0, 0.0)",0.416015625,0.80419921875,0.12646484375,"(0.0, 0.0, 0.0, 0.0, 0.0, 0.0, 0.0, 0.0, 0.0)"
2022/11/28/22:55:23.042372,285,1669697723,42036056,RL_myo,0.6475724247209227,0.4080133514853316,-0.4601365230886933,-0.4499438185714083,"(0.0, 0.0, 0.0, 0.0, 0.0, 0.0, 0.0, 0.0, 0.0)",13.25,-44.3125,43.625,"(0.0, 0.0, 0.0, 0.0, 0.0, 0.0, 0.0, 0.0, 0.0)",0.35205078125,0.93310546875,0.1201171875,"(0.0, 0.0, 0.0, 0.0, 0.0, 0.0, 0.0, 0.0, 0.0)"
2022/11/28/22:55:23.063021,286,1669697723,62640428,RL_myo,0.6472110453430989,0.4041101783493642,-0.4663654844838381,-0.44756682341578125,"(0.0, 0.0, 0.0, 0.0, 0.0, 0.0, 0.0, 0.0, 0.0)",-0.625,-25.1875,29.0625,"(0.0, 0.0, 0.0, 0.0, 0.0, 0.0, 0.0, 0.0, 0.0)",0.31591796875,1.00732421875,0.11328125,"(0.0, 0.0, 0.0, 0.0, 0.0, 0.0, 0.0, 0.0, 0.0)"
2022/11/28/22:55:23.079962,287,1669697723,79444169,RL_myo,0.6480730164679187,0.4012461866886511,-0.4697278145354212,-0.4453747222797516,"(0.0, 0.0, 0.0, 0.0, 0.0, 0.0, 0.0, 0.0, 0.0)",-3.125,-10.4375,22.625,"(0.0, 0.0, 0.0, 0.0, 0.0, 0.0, 0.0, 0.0, 0.0)",0.30322265625,0.96435546875,0.17431640625,"(0.0, 0.0, 0.0, 0.0, 0.0, 0.0, 0.0, 0.0, 0.0)"
2022/11/28/22:55:23.103167,288,1669697723,102276086,RL_myo,0.6481227401487709,0.400079533070458,-0.47209995244851144,-0.443841092980682,"(0.0, 0.0, 0.0, 0.0, 0.0, 0.0, 0.0, 0.0, 0.0)",4.0625,-7.1875,12.1875,"(0.0, 0.0, 0.0, 0.0, 0.0, 0.0, 0.0, 0.0, 0.0)",0.30078125,0.97998046875,0.21533203125,"(0.0, 0.0, 0.0, 0.0, 0.0, 0.0, 0.0, 0.0, 0.0)"
2022/11/28/22:55:23.123362,289,1669697723,122788906,RL_myo,0.6469035166394006,0.4022776750797518,-0.47350481008476936,-0.44213313279892613,"(0.0, 0.0, 0.0, 0.0, 0.0, 0.0, 0.0, 0.0, 0.0)",14.75,2.25,0.1875,"(0.0, 0.0, 0.0, 0.0, 0.0, 0.0, 0.0, 0.0, 0.0)",0.31103515625,1.1220703125,0.208984375,"(0.0, 0.0, 0.0, 0.0, 0.0, 0.0, 0.0, 0.0, 0.0)"
2022/11/28/22:55:23.139879,290,1669697723,139509677,RL_myo,0.6476948260011702,0.4037411679228931,-0.47191635833406037,-0.4413382290628027,"(0.0, 0.0, 0.0, 0.0, 0.0, 0.0, 0.0, 0.0, 0.0)",-2.1875,14.0,0.4375,"(0.0, 0.0, 0.0, 0.0, 0.0, 0.0, 0.0, 0.0, 0.0)",0.25048828125,1.1015625,0.20556640625,"(0.0, 0.0, 0.0, 0.0, 0.0, 0.0, 0.0, 0.0, 0.0)"
2022/11/28/22:55:23.162360,291,1669697723,161873340,RL_myo,0.6486955783961038,0.4037562336366416,-0.47022494692920436,-0.4416598800596732,"(0.0, 0.0, 0.0, 0.0, 0.0, 0.0, 0.0, 0.0, 0.0)",-10.1875,8.5625,-1.1875,"(0.0, 0.0, 0.0, 0.0, 0.0, 0.0, 0.0, 0.0, 0.0)",0.24609375,0.98974609375,0.20556640625,"(0.0, 0.0, 0.0, 0.0, 0.0, 0.0, 0.0, 0.0, 0.0)"
2022/11/28/22:55:23.176244,292,1669697723,175946712,RL_myo,0.6486948521840239,0.40430510922722757,-0.470041311316256,-0.4413542036265221,"(0.0, 0.0, 0.0, 0.0, 0.0, 0.0, 0.0, 0.0, 0.0)",3.375,2.25,-0.5625,"(0.0, 0.0, 0.0, 0.0, 0.0, 0.0, 0.0, 0.0, 0.0)",0.24755859375,0.927734375,0.24169921875,"(0.0, 0.0, 0.0, 0.0, 0.0, 0.0, 0.0, 0.0, 0.0)"
2022/11/28/22:55:23.199521,293,1669697723,199119567,RL_myo,0.6482481701238573,0.4050254078657298,-0.4703934325529204,-0.4409747697151745,"(0.0, 0.0, 0.0, 0.0, 0.0, 0.0, 0.0, 0.0, 0.0)",4.625,0.5,-1.1875,"(0.0, 0.0, 0.0, 0.0, 0.0, 0.0, 0.0, 0.0, 0.0)",0.26318359375,0.96533203125,0.21923828125,"(0.0, 0.0, 0.0, 0.0, 0.0, 0.0, 0.0, 0.0, 0.0)"
2022/11/28/22:55:23.222275,294,1669697723,221955776,RL_myo,0.6479016408812801,0.40552600113191006,-0.4707129019761123,-0.44068298136249107,"(0.0, 0.0, 0.0, 0.0, 0.0, 0.0, 0.0, 0.0, 0.0)",3.25,0.125,-0.5,"(0.0, 0.0, 0.0, 0.0, 0.0, 0.0, 0.0, 0.0, 0.0)",0.2568359375,0.95751953125,0.21826171875,"(0.0, 0.0, 0.0, 0.0, 0.0, 0.0, 0.0, 0.0, 0.0)"
2022/11/28/22:55:23.243625,295,1669697723,242769479,RL_myo,0.6476803269174659,0.4058072459172852,-0.4706851376919993,-0.44077905399528255,"(0.0, 0.0, 0.0, 0.0, 0.0, 0.0, 0.0, 0.0, 0.0)",2.8125,-0.3125,-2.5625,"(0.0, 0.0, 0.0, 0.0, 0.0, 0.0, 0.0, 0.0, 0.0)",0.255859375,0.90625,0.24267578125,"(0.0, 0.0, 0.0, 0.0, 0.0, 0.0, 0.0, 0.0, 0.0)"
2022/11/28/22:55:23.259473,296,1669697723,259162425,RL_myo,0.6471089351994447,0.40625892026858174,-0.470713460503501,-0.44117179622916297,"(0.0, 0.0, 0.0, 0.0, 0.0, 0.0, 0.0, 0.0, 0.0)",3.375,-1.8125,-3.5625,"(0.0, 0.0, 0.0, 0.0, 0.0, 0.0, 0.0, 0.0, 0.0)",0.23779296875,0.927734375,0.24609375,"(0.0, 0.0, 0.0, 0.0, 0.0, 0.0, 0.0, 0.0, 0.0)"
2022/11/28/22:55:23.282375,297,1669697723,281926870,RL_myo,0.6472146679102934,0.4059434888977142,-0.47033536692915134,-0.4417099728090148,"(0.0, 0.0, 0.0, 0.0, 0.0, 0.0, 0.0, 0.0, 0.0)",-3.4375,-0.3125,-3.75,"(0.0, 0.0, 0.0, 0.0, 0.0, 0.0, 0.0, 0.0, 0.0)",0.27587890625,0.923828125,0.22802734375,"(0.0, 0.0, 0.0, 0.0, 0.0, 0.0, 0.0, 0.0, 0.0)"
2022/11/28/22:55:23.303138,298,1669697723,302642107,RL_myo,0.6477238669061667,0.40546830454746186,-0.46980122536531893,-0.4419683867572138,"(0.0, 0.0, 0.0, 0.0, 0.0, 0.0, 0.0, 0.0, 0.0)",-3.5625,2.0,-2.0625,"(0.0, 0.0, 0.0, 0.0, 0.0, 0.0, 0.0, 0.0, 0.0)",0.27294921875,0.89013671875,0.2392578125,"(0.0, 0.0, 0.0, 0.0, 0.0, 0.0, 0.0, 0.0, 0.0)"
2022/11/28/22:55:23.319881,299,1669697723,319418668,RL_myo,0.6476593868384541,0.40613755159957343,-0.46937147156608355,-0.4419050005381593,"(0.0, 0.0, 0.0, 0.0, 0.0, 0.0, 0.0, 0.0, 0.0)",3.9375,2.5,-3.0625,"(0.0, 0.0, 0.0, 0.0, 0.0, 0.0, 0.0, 0.0, 0.0)",0.23388671875,0.88134765625,0.2509765625,"(0.0, 0.0, 0.0, 0.0, 0.0, 0.0, 0.0, 0.0, 0.0)"
2022/11/28/22:55:23.342144,300,1669697723,341793775,RL_myo,0.6467526444240613,0.40766901775276576,-0.46980512496526994,-0.44136168099569534,"(0.0, 0.0, 0.0, 0.0, 0.0, 0.0, 0.0, 0.0, 0.0)",11.875,0.75,-3.6875,"(0.0, 0.0, 0.0, 0.0, 0.0, 0.0, 0.0, 0.0, 0.0)",0.24560546875,0.90380859375,0.23974609375,"(0.0, 0.0, 0.0, 0.0, 0.0, 0.0, 0.0, 0.0, 0.0)"
2022/11/28/22:55:23.363389,301,1669697723,362740039,RL_myo,0.6461158605971322,0.40887305404687213,-0.4703962722106648,-0.4405501872085868,"(0.0, 0.0, 0.0, 0.0, 0.0, 0.0, 0.0, 0.0, 0.0)",10.3125,1.4375,-2.75,"(0.0, 0.0, 0.0, 0.0, 0.0, 0.0, 0.0, 0.0, 0.0)",0.2763671875,0.921875,0.2275390625,"(0.0, 0.0, 0.0, 0.0, 0.0, 0.0, 0.0, 0.0, 0.0)"
2022/11/28/22:55:23.379345,302,1669697723,378967761,RL_myo,0.6459887611993241,0.40972435316808986,-0.470575713231934,-0.4397533091875596,"(0.0, 0.0, 0.0, 0.0, 0.0, 0.0, 0.0, 0.0, 0.0)",6.1875,3.4375,-1.4375,"(0.0, 0.0, 0.0, 0.0, 0.0, 0.0, 0.0, 0.0, 0.0)",0.27587890625,0.9267578125,0.21923828125,"(0.0, 0.0, 0.0, 0.0, 0.0, 0.0, 0.0, 0.0, 0.0)"
2022/11/28/22:55:23.402572,303,1669697723,402038812,RL_myo,0.6458159354564774,0.41089054697032473,-0.4706442376245059,-0.43884477610169853,"(0.0, 0.0, 0.0, 0.0, 0.0, 0.0, 0.0, 0.0, 0.0)",7.6875,4.5,-1.5,"(0.0, 0.0, 0.0, 0.0, 0.0, 0.0, 0.0, 0.0, 0.0)",0.25732421875,0.90966796875,0.21533203125,"(0.0, 0.0, 0.0, 0.0, 0.0, 0.0, 0.0, 0.0, 0.0)"
2022/11/28/22:55:23.423903,304,1669697723,422947168,RL_myo,0.6448463771370396,0.41315334849414304,-0.47095453345853266,-0.43781193215371367,"(0.0, 0.0, 0.0, 0.0, 0.0, 0.0, 0.0, 0.0, 0.0)",14.0625,4.375,-3.4375,"(0.0, 0.0, 0.0, 0.0, 0.0, 0.0, 0.0, 0.0, 0.0)",0.23291015625,0.9208984375,0.208984375,"(0.0, 0.0, 0.0, 0.0, 0.0, 0.0, 0.0, 0.0, 0.0)"
2022/11/28/22:55:23.439741,305,1669697723,439110040,RL_myo,0.6434312485201205,0.4160757751054507,-0.47173971920053226,-0.43627836885048576,"(0.0, 0.0, 0.0, 0.0, 0.0, 0.0, 0.0, 0.0, 0.0)",18.75,4.375,-4.1875,"(0.0, 0.0, 0.0, 0.0, 0.0, 0.0, 0.0, 0.0, 0.0)",0.24072265625,0.92236328125,0.18212890625,"(0.0, 0.0, 0.0, 0.0, 0.0, 0.0, 0.0, 0.0, 0.0)"
2022/11/28/22:55:23.462255,306,1669697723,461893796,RL_myo,0.6421036841420722,0.4188322700173859,-0.4727885111563205,-0.4344576068178013,"(0.0, 0.0, 0.0, 0.0, 0.0, 0.0, 0.0, 0.0, 0.0)",18.75,5.125,-4.1875,"(0.0, 0.0, 0.0, 0.0, 0.0, 0.0, 0.0, 0.0, 0.0)",0.27783203125,0.9423828125,0.169921875,"(0.0, 0.0, 0.0, 0.0, 0.0, 0.0, 0.0, 0.0, 0.0)"
2022/11/28/22:55:23.483443,307,1669697723,482622385,RL_myo,0.6408795381077721,0.42182080836788693,-0.4736404967348868,-0.43244109785653,"(0.0, 0.0, 0.0, 0.0, 0.0, 0.0, 0.0, 0.0, 0.0)",18.875,6.6875,-4.125,"(0.0, 0.0, 0.0, 0.0, 0.0, 0.0, 0.0, 0.0, 0.0)",0.2744140625,0.93115234375,0.15087890625,"(0.0, 0.0, 0.0, 0.0, 0.0, 0.0, 0.0, 0.0, 0.0)"
2022/11/28/22:55:23.499285,308,1669697723,498850107,RL_myo,0.6389298816264198,0.4251801256600727,-0.4744365657128546,-0.43116170078420235,"(0.0, 0.0, 0.0, 0.0, 0.0, 0.0, 0.0, 0.0, 0.0)",18.25,4.5,-7.5,"(0.0, 0.0, 0.0, 0.0, 0.0, 0.0, 0.0, 0.0, 0.0)",0.23974609375,0.93798828125,0.12060546875,"(0.0, 0.0, 0.0, 0.0, 0.0, 0.0, 0.0, 0.0, 0.0)"
2022/11/28/22:55:23.523122,309,1669697723,521836519,RL_myo,0.6369771995233555,0.4272556915162408,-0.4748641828566219,-0.4315282484314032,"(0.0, 0.0, 0.0, 0.0, 0.0, 0.0, 0.0, 0.0, 0.0)",6.625,-1.3125,-10.9375,"(0.0, 0.0, 0.0, 0.0, 0.0, 0.0, 0.0, 0.0, 0.0)",0.23388671875,0.9453125,0.09716796875,"(0.0, 0.0, 0.0, 0.0, 0.0, 0.0, 0.0, 0.0, 0.0)"
2022/11/28/22:55:23.543321,310,1669697723,542557954,RL_myo,0.6358955860448362,0.4264736475038655,-0.4750600255506777,-0.4336761507821618,"(0.0, 0.0, 0.0, 0.0, 0.0, 0.0, 0.0, 0.0, 0.0)",-11.625,-8.875,-10.5,"(0.0, 0.0, 0.0, 0.0, 0.0, 0.0, 0.0, 0.0, 0.0)",0.26025390625,0.90283203125,0.0859375,"(0.0, 0.0, 0.0, 0.0, 0.0, 0.0, 0.0, 0.0, 0.0)"
2022/11/28/22:55:23.558902,311,1669697723,558495759,RL_myo,0.6360062436542747,0.4226206555721879,-0.47517357071482996,-0.43714747764413775,"(0.0, 0.0, 0.0, 0.0, 0.0, 0.0, 0.0, 0.0, 0.0)",-27.125,-16.3125,-6.75,"(0.0, 0.0, 0.0, 0.0, 0.0, 0.0, 0.0, 0.0, 0.0)",0.27783203125,0.818359375,0.10888671875,"(0.0, 0.0, 0.0, 0.0, 0.0, 0.0, 0.0, 0.0, 0.0)"
2022/11/28/22:55:23.582041,312,1669697723,581723928,RL_myo,0.6365531891721227,0.41700368093047674,-0.47517178806261146,-0.4417236005406704,"(0.0, 0.0, 0.0, 0.0, 0.0, 0.0, 0.0, 0.0, 0.0)",-34.5,-23.3125,-1.875,"(0.0, 0.0, 0.0, 0.0, 0.0, 0.0, 0.0, 0.0, 0.0)",0.2099609375,0.732421875,0.1533203125,"(0.0, 0.0, 0.0, 0.0, 0.0, 0.0, 0.0, 0.0, 0.0)"
2022/11/28/22:55:23.603242,313,1669697723,602640628,RL_myo,0.6371414935099241,0.4096650737080765,-0.4765591322277505,-0.44622487393917565,"(0.0, 0.0, 0.0, 0.0, 0.0, 0.0, 0.0, 0.0, 0.0)",-36.8125,-32.8125,8.875,"(0.0, 0.0, 0.0, 0.0, 0.0, 0.0, 0.0, 0.0, 0.0)",0.1689453125,0.6845703125,0.15478515625,"(0.0, 0.0, 0.0, 0.0, 0.0, 0.0, 0.0, 0.0, 0.0)"
2022/11/28/22:55:23.618997,314,1669697723,618645429,RL_myo,0.6373811602499012,0.39940843748686716,-0.4811943950407183,-0.45018897232627325,"(0.0, 0.0, 0.0, 0.0, 0.0, 0.0, 0.0, 0.0, 0.0)",-39.1875,-51.1875,23.3125,"(0.0, 0.0, 0.0, 0.0, 0.0, 0.0, 0.0, 0.0, 0.0)",0.19970703125,0.6650390625,0.12109375,"(0.0, 0.0, 0.0, 0.0, 0.0, 0.0, 0.0, 0.0, 0.0)"
2022/11/28/22:55:23.642587,315,1669697723,642188072,RL_myo,0.638273592990063,0.3852713893997588,-0.48836444654427597,-0.45351179075415204,"(0.0, 0.0, 0.0, 0.0, 0.0, 0.0, 0.0, 0.0, 0.0)",-45.5625,-65.3125,36.8125,"(0.0, 0.0, 0.0, 0.0, 0.0, 0.0, 0.0, 0.0, 0.0)",0.31640625,0.61865234375,0.12841796875,"(0.0, 0.0, 0.0, 0.0, 0.0, 0.0, 0.0, 0.0, 0.0)"
2022/11/28/22:55:23.665910,316,1669697723,664645671,RL_myo,0.6408621408137114,0.367793834337469,-0.496698676375427,-0.4553172924257416,"(0.0, 0.0, 0.0, 0.0, 0.0, 0.0, 0.0, 0.0, 0.0)",-50.125,-70.3125,54.8125,"(0.0, 0.0, 0.0, 0.0, 0.0, 0.0, 0.0, 0.0, 0.0)",0.3837890625,0.572265625,0.19189453125,"(0.0, 0.0, 0.0, 0.0, 0.0, 0.0, 0.0, 0.0, 0.0)"
2022/11/28/22:55:23.679011,317,1669697723,678734540,RL_myo,0.6440371518543989,0.3502165634325759,-0.5066482560219262,-0.4537312534956029,"(0.0, 0.0, 0.0, 0.0, 0.0, 0.0, 0.0, 0.0, 0.0)",-34.8125,-69.25,73.9375,"(0.0, 0.0, 0.0, 0.0, 0.0, 0.0, 0.0, 0.0, 0.0)",0.34619140625,0.46826171875,0.20849609375,"(0.0, 0.0, 0.0, 0.0, 0.0, 0.0, 0.0, 0.0, 0.0)"
2022/11/28/22:55:23.702309,318,1669697723,701884746,RL_myo,0.6456377598515237,0.33411052159455856,-0.5211855578911099,-0.4470879741834384,"(0.0, 0.0, 0.0, 0.0, 0.0, 0.0, 0.0, 0.0, 0.0)",2.4375,-77.3125,91.125,"(0.0, 0.0, 0.0, 0.0, 0.0, 0.0, 0.0, 0.0, 0.0)",0.36376953125,0.3466796875,0.2197265625,"(0.0, 0.0, 0.0, 0.0, 0.0, 0.0, 0.0, 0.0, 0.0)"
2022/11/28/22:55:23.724817,319,1669697723,724453926,RL_myo,0.6426888636515456,0.32360269279017045,-0.5417995292150779,-0.4343795482058927,"(0.0, 0.0, 0.0, 0.0, 0.0, 0.0, 0.0, 0.0, 0.0)",59.4375,-86.9375,104.5625,"(0.0, 0.0, 0.0, 0.0, 0.0, 0.0, 0.0, 0.0, 0.0)",0.494140625,0.2373046875,0.18603515625,"(0.0, 0.0, 0.0, 0.0, 0.0, 0.0, 0.0, 0.0, 0.0)"
2022/11/28/22:55:23.738193,320,1669697723,737843275,RL_myo,0.6375807845955976,0.31640999304456996,-0.5665350222684603,-0.4152270799927102,"(0.0, 0.0, 0.0, 0.0, 0.0, 0.0, 0.0, 0.0, 0.0)",105.5625,-88.9375,118.4375,"(0.0, 0.0, 0.0, 0.0, 0.0, 0.0, 0.0, 0.0, 0.0)",0.6806640625,0.34375,0.15771484375,"(0.0, 0.0, 0.0, 0.0, 0.0, 0.0, 0.0, 0.0, 0.0)"
2022/11/28/22:55:23.762097,321,1669697723,761690139,RL_myo,0.6327403133062887,0.31322690150360505,-0.5936785017391983,-0.3861015937084578,"(0.0, 0.0, 0.0, 0.0, 0.0, 0.0, 0.0, 0.0, 0.0)",158.0625,-69.0625,144.6875,"(0.0, 0.0, 0.0, 0.0, 0.0, 0.0, 0.0, 0.0, 0.0)",0.818359375,0.2705078125,0.13232421875,"(0.0, 0.0, 0.0, 0.0, 0.0, 0.0, 0.0, 0.0, 0.0)"
2022/11/28/22:55:23.784927,322,1669697723,784443140,RL_myo,0.624207598680591,0.3198857949237291,-0.6233531050479002,-0.34564267442340735,"(0.0, 0.0, 0.0, 0.0, 0.0, 0.0, 0.0, 0.0, 0.0)",243.8125,-49.3125,149.25,"(0.0, 0.0, 0.0, 0.0, 0.0, 0.0, 0.0, 0.0, 0.0)",0.8125,0.1982421875,0.05859375,"(0.0, 0.0, 0.0, 0.0, 0.0, 0.0, 0.0, 0.0, 0.0)"
2022/11/28/22:55:23.798762,323,1669697723,798412799,RL_myo,0.6129706326777707,0.3323945101626147,-0.6513003705371394,-0.29931374914386016,"(0.0, 0.0, 0.0, 0.0, 0.0, 0.0, 0.0, 0.0, 0.0)",286.3125,-30.3125,142.375,"(0.0, 0.0, 0.0, 0.0, 0.0, 0.0, 0.0, 0.0, 0.0)",0.8359375,0.388671875,-0.06982421875,"(0.0, 0.0, 0.0, 0.0, 0.0, 0.0, 0.0, 0.0, 0.0)"
2022/11/28/22:55:23.822790,324,1669697723,822243928,RL_myo,0.6043101862610026,0.3419806053550548,-0.6731579683135641,-0.25439499609492566,"(0.0, 0.0, 0.0, 0.0, 0.0, 0.0, 0.0, 0.0, 0.0)",255.3125,-8.0625,143.25,"(0.0, 0.0, 0.0, 0.0, 0.0, 0.0, 0.0, 0.0, 0.0)",0.96875,0.6328125,-0.12548828125,"(0.0, 0.0, 0.0, 0.0, 0.0, 0.0, 0.0, 0.0, 0.0)"
2022/11/28/22:55:23.846157,325,1669697723,844357728,RL_myo,0.5994924937443347,0.3477202949360084,-0.6903135923690109,-0.2077654702408588,"(0.0, 0.0, 0.0, 0.0, 0.0, 0.0, 0.0, 0.0, 0.0)",234.75,20.5,160.6875,"(0.0, 0.0, 0.0, 0.0, 0.0, 0.0, 0.0, 0.0, 0.0)",1.021484375,0.60498046875,-0.1533203125,"(0.0, 0.0, 0.0, 0.0, 0.0, 0.0, 0.0, 0.0, 0.0)"
2022/11/28/22:55:23.857994,326,1669697723,857773303,RL_myo,0.5956911662687638,0.3545461050056608,-0.7023174436736338,-0.16186198493286494,"(0.0, 0.0, 0.0, 0.0, 0.0, 0.0, 0.0, 0.0, 0.0)",227.1875,42.625,147.875,"(0.0, 0.0, 0.0, 0.0, 0.0, 0.0, 0.0, 0.0, 0.0)",0.93994140625,0.65869140625,-0.22607421875,"(0.0, 0.0, 0.0, 0.0, 0.0, 0.0, 0.0, 0.0, 0.0)"
2022/11/28/22:55:23.882328,327,1669697723,881980180,RL_myo,0.5940469302106627,0.36162828125944485,-0.7087914312685119,-0.11810138805688199,"(0.0, 0.0, 0.0, 0.0, 0.0, 0.0, 0.0, 0.0, 0.0)",210.125,65.6875,132.125,"(0.0, 0.0, 0.0, 0.0, 0.0, 0.0, 0.0, 0.0, 0.0)",0.98876953125,0.7412109375,-0.2880859375,"(0.0, 0.0, 0.0, 0.0, 0.0, 0.0, 0.0, 0.0, 0.0)"
2022/11/28/22:55:23.906206,328,1669697723,904229164,RL_myo,0.5958297888729769,0.3634061219985356,-0.7117364441761712,-0.07971252860767342,"(0.0, 0.0, 0.0, 0.0, 0.0, 0.0, 0.0, 0.0, 0.0)",161.3125,77.375,132.0,"(0.0, 0.0, 0.0, 0.0, 0.0, 0.0, 0.0, 0.0, 0.0)",1.0458984375,0.8251953125,-0.3232421875,"(0.0, 0.0, 0.0, 0.0, 0.0, 0.0, 0.0, 0.0, 0.0)"
2022/11/28/22:55:23.925520,329,1669697723,925120115,RL_myo,0.6012599919074735,0.360231090471821,-0.7117951503019954,-0.045471393155118035,"(0.0, 0.0, 0.0, 0.0, 0.0, 0.0, 0.0, 0.0, 0.0)",118.6875,91.625,135.125,"(0.0, 0.0, 0.0, 0.0, 0.0, 0.0, 0.0, 0.0, 0.0)",1.10498046875,0.85498046875,-0.3466796875,"(0.0, 0.0, 0.0, 0.0, 0.0, 0.0, 0.0, 0.0, 0.0)"
2022/11/28/22:55:23.942472,330,1669697723,942049264,RL_myo,0.607183061250976,0.359622295626332,-0.7084412738178607,-0.010559174667915044,"(0.0, 0.0, 0.0, 0.0, 0.0, 0.0, 0.0, 0.0, 0.0)",127.875,107.9375,120.5625,"(0.0, 0.0, 0.0, 0.0, 0.0, 0.0, 0.0, 0.0, 0.0)",1.03857421875,0.74755859375,-0.3447265625,"(0.0, 0.0, 0.0, 0.0, 0.0, 0.0, 0.0, 0.0, 0.0)"
2022/11/28/22:55:23.966043,331,1669697723,964362382,RL_myo,0.6126026757776405,0.35992009355990295,-0.7033608882795187,0.021423088492373402,"(0.0, 0.0, 0.0, 0.0, 0.0, 0.0, 0.0, 0.0, 0.0)",120.4375,106.25,103.6875,"(0.0, 0.0, 0.0, 0.0, 0.0, 0.0, 0.0, 0.0, 0.0)",1.00830078125,0.72705078125,-0.3212890625,"(0.0, 0.0, 0.0, 0.0, 0.0, 0.0, 0.0, 0.0, 0.0)"
2022/11/28/22:55:23.986121,332,1669697723,985301017,RL_myo,0.6192029530689773,0.357971938861464,-0.6974501867638446,0.044799898230914674,"(0.0, 0.0, 0.0, 0.0, 0.0, 0.0, 0.0, 0.0, 0.0)",77.25,99.25,93.1875,"(0.0, 0.0, 0.0, 0.0, 0.0, 0.0, 0.0, 0.0, 0.0)",1.16015625,0.748046875,-0.35205078125,"(0.0, 0.0, 0.0, 0.0, 0.0, 0.0, 0.0, 0.0, 0.0)"
2022/11/28/22:55:24.002449,333,1669697724,2121925,RL_myo,0.6275558202237858,0.35357234648476865,-0.6901771265406117,0.06939612600607317,"(0.0, 0.0, 0.0, 0.0, 0.0, 0.0, 0.0, 0.0, 0.0)",67.0,113.625,90.0625,"(0.0, 0.0, 0.0, 0.0, 0.0, 0.0, 0.0, 0.0, 0.0)",1.23828125,0.625,-0.46533203125,"(0.0, 0.0, 0.0, 0.0, 0.0, 0.0, 0.0, 0.0, 0.0)"
2022/11/28/22:55:24.025377,334,1669697724,24287223,RL_myo,0.6352596640354654,0.35272536495589496,-0.6801209104868554,0.09729092087553151,"(0.0, 0.0, 0.0, 0.0, 0.0, 0.0, 0.0, 0.0, 0.0)",94.5,127.9375,83.125,"(0.0, 0.0, 0.0, 0.0, 0.0, 0.0, 0.0, 0.0, 0.0)",1.1171875,0.55810546875,-0.47998046875,"(0.0, 0.0, 0.0, 0.0, 0.0, 0.0, 0.0, 0.0, 0.0)"
2022/11/28/22:55:24.045670,335,1669697724,45115470,RL_myo,0.6414053404382805,0.35564458261812354,-0.6683823278275391,0.12402090130084555,"(0.0, 0.0, 0.0, 0.0, 0.0, 0.0, 0.0, 0.0, 0.0)",108.5,123.1875,64.8125,"(0.0, 0.0, 0.0, 0.0, 0.0, 0.0, 0.0, 0.0, 0.0)",0.97998046875,0.6494140625,-0.42138671875,"(0.0, 0.0, 0.0, 0.0, 0.0, 0.0, 0.0, 0.0, 0.0)"
2022/11/28/22:55:24.062317,336,1669697724,61950683,RL_myo,0.646785987191499,0.35790818428715204,-0.6576501851456452,0.1451408018817953,"(0.0, 0.0, 0.0, 0.0, 0.0, 0.0, 0.0, 0.0, 0.0)",85.6875,105.375,50.25,"(0.0, 0.0, 0.0, 0.0, 0.0, 0.0, 0.0, 0.0, 0.0)",0.9423828125,0.6923828125,-0.3642578125,"(0.0, 0.0, 0.0, 0.0, 0.0, 0.0, 0.0, 0.0, 0.0)"
2022/11/28/22:55:24.085133,337,1669697724,84563493,RL_myo,0.6525948326828193,0.3587684648811833,-0.6487495769346883,0.15661787697943455,"(0.0, 0.0, 0.0, 0.0, 0.0, 0.0, 0.0, 0.0, 0.0)",40.1875,93.9375,40.75,"(0.0, 0.0, 0.0, 0.0, 0.0, 0.0, 0.0, 0.0, 0.0)",1.02783203125,0.646484375,-0.34912109375,"(0.0, 0.0, 0.0, 0.0, 0.0, 0.0, 0.0, 0.0, 0.0)"
2022/11/28/22:55:24.106053,338,1669697724,105519294,RL_myo,0.6599142788920865,0.35638544898731905,-0.6405660707521688,0.16485649900920513,"(0.0, 0.0, 0.0, 0.0, 0.0, 0.0, 0.0, 0.0, 0.0)",10.9375,94.9375,36.5,"(0.0, 0.0, 0.0, 0.0, 0.0, 0.0, 0.0, 0.0, 0.0)",1.029296875,0.56884765625,-0.34228515625,"(0.0, 0.0, 0.0, 0.0, 0.0, 0.0, 0.0, 0.0, 0.0)"
2022/11/28/22:55:24.123477,339,1669697724,122792482,RL_myo,0.6670607659012218,0.3530313358928234,-0.6334300145047927,0.17077829837968878,"(0.0, 0.0, 0.0, 0.0, 0.0, 0.0, 0.0, 0.0, 0.0)",-2.375,86.1875,30.625,"(0.0, 0.0, 0.0, 0.0, 0.0, 0.0, 0.0, 0.0, 0.0)",0.91943359375,0.5,-0.3115234375,"(0.0, 0.0, 0.0, 0.0, 0.0, 0.0, 0.0, 0.0, 0.0)"
2022/11/28/22:55:24.145967,340,1669697724,144220352,RL_myo,0.6720787787430994,0.3510239811598915,-0.6279490033338486,0.17542043502930413,"(0.0, 0.0, 0.0, 0.0, 0.0, 0.0, 0.0, 0.0, 0.0)",0.75,66.5,21.375,"(0.0, 0.0, 0.0, 0.0, 0.0, 0.0, 0.0, 0.0, 0.0)",0.85986328125,0.40234375,-0.2646484375,"(0.0, 0.0, 0.0, 0.0, 0.0, 0.0, 0.0, 0.0, 0.0)"
2022/11/28/22:55:24.165506,341,1669697724,165001392,RL_myo,0.6747620967572697,0.3512058891670131,-0.6234301272074856,0.18079107468069047,"(0.0, 0.0, 0.0, 0.0, 0.0, 0.0, 0.0, 0.0, 0.0)",16.25,49.875,14.1875,"(0.0, 0.0, 0.0, 0.0, 0.0, 0.0, 0.0, 0.0, 0.0)",0.8974609375,0.3193359375,-0.203125,"(0.0, 0.0, 0.0, 0.0, 0.0, 0.0, 0.0, 0.0, 0.0)"
2022/11/28/22:55:24.181998,342,1669697724,181621789,RL_myo,0.6762295829801992,0.35261109313806394,-0.6193430434606084,0.18652925404707002,"(0.0, 0.0, 0.0, 0.0, 0.0, 0.0, 0.0, 0.0, 0.0)",24.8125,39.4375,11.6875,"(0.0, 0.0, 0.0, 0.0, 0.0, 0.0, 0.0, 0.0, 0.0)",0.98046875,0.30908203125,-0.1416015625,"(0.0, 0.0, 0.0, 0.0, 0.0, 0.0, 0.0, 0.0, 0.0)"
2022/11/28/22:55:24.205182,343,1669697724,204821109,RL_myo,0.6772500623668336,0.35504358442572737,-0.6152990157462194,0.19152944265565283,"(0.0, 0.0, 0.0, 0.0, 0.0, 0.0, 0.0, 0.0, 0.0)",27.5,34.75,7.0625,"(0.0, 0.0, 0.0, 0.0, 0.0, 0.0, 0.0, 0.0, 0.0)",0.97705078125,0.328125,-0.12646484375,"(0.0, 0.0, 0.0, 0.0, 0.0, 0.0, 0.0, 0.0, 0.0)"
2022/11/28/22:55:24.225984,344,1669697724,225352764,RL_myo,0.6786600013358358,0.3563895806996983,-0.611825510692546,0.1951322982526007,"(0.0, 0.0, 0.0, 0.0, 0.0, 0.0, 0.0, 0.0, 0.0)",17.75,29.875,5.5625,"(0.0, 0.0, 0.0, 0.0, 0.0, 0.0, 0.0, 0.0, 0.0)",0.95751953125,0.31494140625,-0.0849609375,"(0.0, 0.0, 0.0, 0.0, 0.0, 0.0, 0.0, 0.0, 0.0)"
2022/11/28/22:55:24.242352,345,1669697724,241894006,RL_myo,0.6798692960586862,0.35711601142287214,-0.6092517562849273,0.19763145530460777,"(0.0, 0.0, 0.0, 0.0, 0.0, 0.0, 0.0, 0.0, 0.0)",10.875,21.375,1.75,"(0.0, 0.0, 0.0, 0.0, 0.0, 0.0, 0.0, 0.0, 0.0)",0.97412109375,0.26171875,-0.0419921875,"(0.0, 0.0, 0.0, 0.0, 0.0, 0.0, 0.0, 0.0, 0.0)"
2022/11/28/22:55:24.264996,346,1669697724,264613389,RL_myo,0.6806903563984813,0.3568863444998135,-0.6075674145974249,0.20038615854162609,"(0.0, 0.0, 0.0, 0.0, 0.0, 0.0, 0.0, 0.0, 0.0)",8.8125,16.5625,3.75,"(0.0, 0.0, 0.0, 0.0, 0.0, 0.0, 0.0, 0.0, 0.0)",0.99658203125,0.1982421875,-0.00634765625,"(0.0, 0.0, 0.0, 0.0, 0.0, 0.0, 0.0, 0.0, 0.0)"
2022/11/28/22:55:24.286034,347,1669697724,285337924,RL_myo,0.6810433319346452,0.3570014741428338,-0.606334868205661,0.202701640558788,"(0.0, 0.0, 0.0, 0.0, 0.0, 0.0, 0.0, 0.0, 0.0)",9.1875,11.0625,1.625,"(0.0, 0.0, 0.0, 0.0, 0.0, 0.0, 0.0, 0.0, 0.0)",0.99169921875,0.18896484375,0.0029296875,"(0.0, 0.0, 0.0, 0.0, 0.0, 0.0, 0.0, 0.0, 0.0)"
2022/11/28/22:55:24.301724,348,1669697724,301229000,RL_myo,0.6815336296360203,0.3568194159817459,-0.6056042157664869,0.2035567485971814,"(0.0, 0.0, 0.0, 0.0, 0.0, 0.0, 0.0, 0.0, 0.0)",2.125,6.0,-0.875,"(0.0, 0.0, 0.0, 0.0, 0.0, 0.0, 0.0, 0.0, 0.0)",0.9609375,0.19921875,0.0146484375,"(0.0, 0.0, 0.0, 0.0, 0.0, 0.0, 0.0, 0.0, 0.0)"
2022/11/28/22:55:24.325338,349,1669697724,324563026,RL_myo,0.6820165491395975,0.35638935300036784,-0.6053553010888248,0.20343307305193115,"(0.0, 0.0, 0.0, 0.0, 0.0, 0.0, 0.0, 0.0, 0.0)",-2.875,3.0625,-2.0,"(0.0, 0.0, 0.0, 0.0, 0.0, 0.0, 0.0, 0.0, 0.0)",0.94580078125,0.2021484375,0.015625,"(0.0, 0.0, 0.0, 0.0, 0.0, 0.0, 0.0, 0.0, 0.0)"
